time,seconds_elapsed,z,y,x
1760107193684527900,0.06052783203125,-1.036590576171875,-0.2581939697265625,0.0252838134765625
1760107193694593000,0.070593017578125,-1.02923583984375,-0.2567901611328125,0.0187225341796875
1760107193704658000,0.080657958984375,-1.01141357421875,-0.25726318359375,0.012054443359375
1760107193714722800,0.090722900390625,-0.991302490234375,-0.26312255859375,0.0157928466796875
1760107193724789000,0.1007890625,-0.9788818359375,-0.27166748046875,0.0153961181640625
1760107193734854000,0.11085400390625,-0.963409423828125,-0.2842864990234375,0.0150299072265625
1760107193744919000,0.1209189453125,-0.9458160400390625,-0.295867919921875,0.0247039794921875
1760107193754984000,0.13098388671875,-0.9310302734375,-0.3065338134765625,0.04302978515625
1760107193765049000,0.141049072265625,-0.920806884765625,-0.3109283447265625,0.05340576171875
1760107193775115000,0.151114990234375,-0.90350341796875,-0.306610107421875,0.0494842529296875
1760107193785180000,0.161179931640625,-0.8462982177734375,-0.3036956787109375,0.00836181640625
1760107193795245000,0.1712451171875,-0.7796173095703125,-0.3271942138671875,-0.027740478515625
1760107193805310000,0.18131005859375,-0.7607574462890625,-0.365020751953125,-0.01318359375
1760107193815376100,0.191376220703125,-0.765472412109375,-0.38555908203125,0.0176239013671875
1760107193825440800,0.201440673828125,-0.7867584228515625,-0.378082275390625,0.0247344970703125
1760107193835506000,0.211505859375,-0.828857421875,-0.3589630126953125,0.0263519287109375
1760107193845571000,0.221571044921875,-0.887237548828125,-0.3420562744140625,0.0270538330078125
1760107193855636000,0.231635986328125,-0.9441680908203125,-0.3332366943359375,0.0125274658203125
1760107193865702000,0.241701904296875,-0.98175048828125,-0.3246917724609375,-0.009033203125
1760107193875767000,0.25176708984375,-1.01556396484375,-0.3141937255859375,-0.02276611328125
1760107193885832200,0.261832275390625,-1.0327911376953125,-0.3070831298828125,-0.0244140625
1760107193895896800,0.271896728515625,-1.0273895263671875,-0.3083038330078125,-0.018646240234375
1760107193905963000,0.281962890625,-1.0040435791015625,-0.3088226318359375,-0.013214111328125
1760107193916028000,0.29202783203125,-0.9706268310546875,-0.3074493408203125,-0.0030670166015625
1760107193926092800,0.3020927734375,-0.9428558349609375,-0.30572509765625,0.00311279296875
1760107193936158000,0.312157958984375,-0.926910400390625,-0.3077850341796875,0.015594482421875
1760107193946223000,0.32222314453125,-0.9326324462890625,-0.3066864013671875,0.0318145751953125
1760107193956289000,0.3322890625,-0.9398651123046875,-0.29632568359375,0.0333404541015625
1760107193966354000,0.34235400390625,-0.9435272216796875,-0.2860870361328125,0.0270538330078125
1760107193976419000,0.352419189453125,-0.9448089599609375,-0.287078857421875,0.022552490234375
1760107193986484000,0.36248388671875,-0.93829345703125,-0.2998199462890625,0.01007080078125
1760107193996550000,0.3725498046875,-0.926727294921875,-0.3145599365234375,-0.006622314453125
1760107194006615000,0.382614990234375,-0.9200286865234375,-0.3313446044921875,-0.0148162841796875
1760107194016680000,0.392679931640625,-0.9156951904296875,-0.3369140625,-0.0068511962890625
1760107194026744800,0.402744873046875,-0.9196929931640625,-0.32904052734375,0.007110595703125
1760107194036810000,0.41281005859375,-0.9296417236328125,-0.3170166015625,0.022857666015625
1760107194046876000,0.4228759765625,-0.9428863525390625,-0.3065643310546875,0.0318145751953125
1760107194056941000,0.432941162109375,-0.9605560302734375,-0.298675537109375,0.0308837890625
1760107194067006000,0.443005859375,-0.974151611328125,-0.2945556640625,0.0224151611328125
1760107194077070800,0.45307080078125,-0.9877777099609375,-0.303314208984375,0.00531005859375
1760107194087137000,0.463136962890625,-0.997100830078125,-0.314544677734375,-0.0057220458984375
1760107194097202200,0.4732021484375,-0.9973297119140625,-0.3188629150390625,-0.0140533447265625
1760107194107266800,0.483266845703125,-0.9950714111328125,-0.318756103515625,-0.010101318359375
1760107194117332000,0.49333203125,-0.9920806884765625,-0.319580078125,-0.003173828125
1760107194127397000,0.503397216796875,-0.99127197265625,-0.3208160400390625,-0.00323486328125
1760107194137462800,0.513462890625,-0.9927978515625,-0.325836181640625,-0.008087158203125
1760107194147528000,0.52352783203125,-0.9999542236328125,-0.33636474609375,-0.0128173828125
1760107194157593000,0.533593017578125,-1.0034942626953125,-0.3489227294921875,-0.01275634765625
1760107194167657700,0.54365771484375,-0.99505615234375,-0.3592681884765625,-0.014923095703125
1760107194177724000,0.553723876953125,-0.9804534912109375,-0.3648223876953125,-0.011871337890625
1760107194187789000,0.5637890625,-0.959320068359375,-0.3632659912109375,-0.008026123046875
1760107194197854000,0.57385400390625,-0.93701171875,-0.365020751953125,-0.0052642822265625
1760107194207918800,0.5839189453125,-0.9093475341796875,-0.368194580078125,-0.0012664794921875
1760107194217984000,0.59398388671875,-0.89166259765625,-0.36724853515625,0.0070953369140625
1760107194228049700,0.604049560546875,-0.8897552490234375,-0.3576812744140625,0.0258331298828125
1760107194238114600,0.614114501953125,-0.8999481201171875,-0.342681884765625,0.0326385498046875
1760107194248179700,0.6241796875,-0.9190826416015625,-0.33526611328125,0.0261383056640625
1760107194258244900,0.634244873046875,-0.9382781982421875,-0.33514404296875,0.01220703125
1760107194268309500,0.6443095703125,-0.951629638671875,-0.3336639404296875,0.0010528564453125
1760107194278375700,0.654375732421875,-0.95721435546875,-0.3294219970703125,-0.0027313232421875
1760107194288440800,0.66444091796875,-0.961090087890625,-0.326873779296875,0.003021240234375
1760107194298505700,0.674505615234375,-0.963592529296875,-0.3243255615234375,0.0128631591796875
1760107194308570600,0.684570556640625,-0.962432861328125,-0.3206024169921875,0.02264404296875
1760107194318636500,0.694636474609375,-0.9544830322265625,-0.315155029296875,0.03228759765625
1760107194328701700,0.70470166015625,-0.9429168701171875,-0.313995361328125,0.040252685546875
1760107194338766800,0.714766845703125,-0.9345550537109375,-0.319305419921875,0.0437774658203125
1760107194348831700,0.724831787109375,-0.9323883056640625,-0.3253173828125,0.0409698486328125
1760107194358896600,0.734896728515625,-0.940460205078125,-0.33447265625,0.0320587158203125
1760107194368962800,0.744962890625,-0.952117919921875,-0.346221923828125,0.014312744140625
1760107194379027700,0.75502783203125,-0.9568328857421875,-0.3542022705078125,0.0011138916015625
1760107194389092600,0.765092529296875,-0.962005615234375,-0.3603973388671875,0.0021820068359375
1760107194399157800,0.77515771484375,-0.9645538330078125,-0.3625335693359375,0.00970458984375
1760107194409223700,0.7852236328125,-0.960418701171875,-0.358978271484375,0.0132904052734375
1760107194419288600,0.79528857421875,-0.955963134765625,-0.3558349609375,0.01190185546875
1760107194429353700,0.805353759765625,-0.95452880859375,-0.3586883544921875,0.006195068359375
1760107194439419000,0.8154189453125,-0.952056884765625,-0.3688201904296875,-0.0084228515625
1760107194449483500,0.8254833984375,-0.9576416015625,-0.382781982421875,-0.0167236328125
1760107194459549700,0.8355498046875,-0.9701080322265625,-0.3882293701171875,-0.0115203857421875
1760107194469614800,0.84561474609375,-0.9805755615234375,-0.3826904296875,-0.012481689453125
1760107194479679700,0.8556796875,-0.9894561767578125,-0.375701904296875,-0.012451171875
1760107194489744600,0.86574462890625,-1.0021209716796875,-0.3722381591796875,-0.009124755859375
1760107194499810800,0.875810791015625,-1.017669677734375,-0.372161865234375,-0.00885009765625
1760107194509875700,0.885875732421875,-1.0300445556640625,-0.3695068359375,-0.0167236328125
1760107194519940600,0.895940673828125,-1.0288848876953125,-0.368133544921875,-0.016815185546875
1760107194530005800,0.906005859375,-1.0194549560546875,-0.37335205078125,-0.0101318359375
1760107194540070700,0.916070556640625,-1.0169219970703125,-0.3745880126953125,-0.0047454833984375
1760107194550136800,0.92613671875,-1.0175018310546875,-0.3636322021484375,-0.0030364990234375
1760107194560201700,0.93620166015625,-1.022125244140625,-0.344085693359375,-0.00299072265625
1760107194570266600,0.9462666015625,-1.048095703125,-0.3285675048828125,0.00799560546875
1760107194580331800,0.956331787109375,-1.0850372314453125,-0.3133697509765625,0.0137481689453125
1760107194590396700,0.966396728515625,-1.1146087646484375,-0.2956085205078125,0.0146636962890625
1760107194600462600,0.976462646484375,-1.1273040771484375,-0.27294921875,0.0175323486328125
1760107194610527700,0.98652783203125,-1.118865966796875,-0.2554473876953125,0.0207977294921875
1760107194620592600,0.996592529296875,-1.090545654296875,-0.242828369140625,0.0284576416015625
1760107194630657800,1.00665771484375,-1.043701171875,-0.2410888671875,0.0439300537109375
1760107194640723700,1.0167236328125,-0.9913177490234375,-0.2440948486328125,0.059478759765625
1760107194650788900,1.026788818359375,-0.946990966796875,-0.246307373046875,0.06866455078125
1760107194660853500,1.036853515625,-0.927459716796875,-0.248138427734375,0.076934814453125
1760107194670918700,1.046918701171875,-0.9309539794921875,-0.2368011474609375,0.0821990966796875
1760107194680983800,1.05698388671875,-0.959197998046875,-0.218017578125,0.08221435546875
1760107194691049700,1.0670498046875,-1.0037841796875,-0.2010498046875,0.07464599609375
1760107194701114600,1.077114501953125,-1.04644775390625,-0.1855926513671875,0.0620574951171875
1760107194711179800,1.0871796875,-1.0787200927734375,-0.1734466552734375,0.046661376953125
1760107194721245000,1.097244873046875,-1.089996337890625,-0.170166015625,0.0285186767578125
1760107194731310600,1.107310546875,-1.078460693359375,-0.176910400390625,0.0137176513671875
1760107194741375700,1.117375732421875,-1.0516815185546875,-0.1903076171875,0.0087127685546875
1760107194751440600,1.127440673828125,-1.0136566162109375,-0.205810546875,0.0155029296875
1760107194761505500,1.137505615234375,-0.9727783203125,-0.2187347412109375,0.0268707275390625
1760107194771570700,1.14757080078125,-0.9450225830078125,-0.230987548828125,0.045196533203125
1760107194781636600,1.15763671875,-0.9275360107421875,-0.238922119140625,0.0587310791015625
1760107194791701800,1.16770166015625,-0.9174957275390625,-0.2393035888671875,0.062652587890625
1760107194801766700,1.1777666015625,-0.9138336181640625,-0.234893798828125,0.0647430419921875
1760107194811831800,1.187831787109375,-0.9221649169921875,-0.2325592041015625,0.0717315673828125
1760107194821896700,1.197896728515625,-0.939483642578125,-0.2325286865234375,0.0692291259765625
1760107194831962600,1.207962646484375,-0.95452880859375,-0.234375,0.05230712890625
1760107194842027800,1.21802783203125,-0.959442138671875,-0.242584228515625,0.0318756103515625
1760107194852092700,1.2280927734375,-0.94903564453125,-0.2557373046875,0.018768310546875
1760107194862157800,1.23815771484375,-0.9263916015625,-0.2666015625,0.0119781494140625
1760107194872223500,1.248223388671875,-0.9035491943359375,-0.274169921875,0.014556884765625
1760107194882288600,1.25828857421875,-0.8937530517578125,-0.274810791015625,0.027099609375
1760107194892353800,1.268353759765625,-0.9027252197265625,-0.26898193359375,0.034912109375
1760107194902418700,1.278418701171875,-0.9216156005859375,-0.2613372802734375,0.040679931640625
1760107194912483600,1.288483642578125,-0.94049072265625,-0.253631591796875,0.0486297607421875
1760107194922549800,1.2985498046875,-0.9507904052734375,-0.2526397705078125,0.05694580078125
1760107194932615000,1.308614990234375,-0.9492645263671875,-0.2550048828125,0.056243896484375
1760107194942679600,1.318679443359375,-0.9383392333984375,-0.25823974609375,0.0471343994140625
1760107194952744700,1.32874462890625,-0.9217529296875,-0.2694244384765625,0.0438385009765625
1760107194962811000,1.338810791015625,-0.90240478515625,-0.2819671630859375,0.0461883544921875
1760107194972875500,1.34887548828125,-0.884033203125,-0.2916107177734375,0.0447998046875
1760107194982940700,1.358940673828125,-0.8762969970703125,-0.2972259521484375,0.04425048828125
1760107194993005800,1.369005859375,-0.8744354248046875,-0.2997283935546875,0.047332763671875
1760107195003070700,1.37907080078125,-0.8759765625,-0.300689697265625,0.0466766357421875
1760107195013136600,1.38913671875,-0.8812408447265625,-0.3037872314453125,0.045562744140625
1760107195023201800,1.399201904296875,-0.888763427734375,-0.3094635009765625,0.04327392578125
1760107195033266700,1.4092666015625,-0.8938446044921875,-0.31414794921875,0.0374298095703125
1760107195043331600,1.41933154296875,-0.895599365234375,-0.3199462890625,0.0312652587890625
1760107195053396700,1.429396728515625,-0.897857666015625,-0.3268890380859375,0.0311431884765625
1760107195063462700,1.439462646484375,-0.9072113037109375,-0.3334808349609375,0.0393524169921875
1760107195073527800,1.44952783203125,-0.9209747314453125,-0.3336181640625,0.0402069091796875
1760107195083592700,1.4595927734375,-0.9263763427734375,-0.3328399658203125,0.0394134521484375
1760107195093657900,1.469657958984375,-0.92523193359375,-0.3390960693359375,0.0360870361328125
1760107195103723800,1.479723876953125,-0.9146575927734375,-0.3496551513671875,0.0247344970703125
1760107195113788700,1.48978857421875,-0.904388427734375,-0.361358642578125,0.015106201171875
1760107195123853600,1.499853515625,-0.9033660888671875,-0.3736572265625,0.00762939453125
1760107195133918700,1.509918701171875,-0.910308837890625,-0.3798675537109375,0.0052490234375
1760107195143983600,1.519983642578125,-0.924468994140625,-0.37957763671875,0.009124755859375
1760107195154049500,1.530049560546875,-0.942657470703125,-0.3735809326171875,0.0146026611328125
1760107195164114700,1.54011474609375,-0.9607391357421875,-0.363922119140625,0.014007568359375
1760107195174179800,1.550179931640625,-0.979339599609375,-0.3544158935546875,0.005828857421875
1760107195184244700,1.56024462890625,-0.99957275390625,-0.351531982421875,-0.0018768310546875
1760107195194309600,1.5703095703125,-1.0164794921875,-0.3553619384765625,-0.0001220703125
1760107195204375800,1.580375732421875,-1.0219268798828125,-0.3548126220703125,-0.0014801025390625
1760107195214440700,1.590440673828125,-1.01953125,-0.3535614013671875,-0.0145111083984375
1760107195224505900,1.600505859375,-1.00982666015625,-0.3528594970703125,-0.0240631103515625
1760107195234570800,1.61057080078125,-1.0009307861328125,-0.35333251953125,-0.019317626953125
1760107195244636700,1.62063671875,-0.999542236328125,-0.3476715087890625,-0.0068206787109375
1760107195254701800,1.630701904296875,-1.0119781494140625,-0.3400421142578125,0.009368896484375
1760107195264767000,1.64076708984375,-1.0284423828125,-0.3322601318359375,0.0270233154296875
1760107195274832000,1.650831787109375,-1.04705810546875,-0.328155517578125,0.0406036376953125
1760107195284896800,1.660896728515625,-1.063995361328125,-0.3227386474609375,0.0347747802734375
1760107195294963000,1.670962890625,-1.0845794677734375,-0.3163604736328125,0.015106201171875
1760107195305027800,1.68102783203125,-1.1006927490234375,-0.3144989013671875,-0.0071258544921875
1760107195315092700,1.6910927734375,-1.1017913818359375,-0.31768798828125,-0.029510498046875
1760107195325158000,1.701157958984375,-1.088226318359375,-0.3206329345703125,-0.042694091796875
1760107195335222800,1.711222900390625,-1.059112548828125,-0.3135986328125,-0.04718017578125
1760107195345288700,1.721288818359375,-1.016265869140625,-0.2960968017578125,-0.042572021484375
1760107195355353900,1.731353759765625,-0.9765777587890625,-0.2773284912109375,-0.02728271484375
1760107195365419000,1.7414189453125,-0.957672119140625,-0.265899658203125,-0.0024261474609375
1760107195375483600,1.751483642578125,-0.960205078125,-0.25604248046875,0.01141357421875
1760107195385549800,1.7615498046875,-0.9835205078125,-0.24078369140625,0.0138397216796875
1760107195395615000,1.771614990234375,-1.0250091552734375,-0.2232666015625,0.0114898681640625
1760107195405679900,1.781679931640625,-1.075531005859375,-0.2057952880859375,0.0189361572265625
1760107195415744800,1.791744873046875,-1.1282958984375,-0.19451904296875,0.0216217041015625
1760107195425810000,1.801809814453125,-1.16925048828125,-0.1927642822265625,0.01434326171875
1760107195435875800,1.811875732421875,-1.1759490966796875,-0.20306396484375,-0.00335693359375
1760107195445940700,1.821940673828125,-1.1340179443359375,-0.2154693603515625,-0.027557373046875
1760107195456006000,1.832005859375,-1.0637969970703125,-0.230865478515625,-0.0462646484375
1760107195466070800,1.84207080078125,-0.994171142578125,-0.2469940185546875,-0.049346923828125
1760107195476135700,1.8521357421875,-0.9287872314453125,-0.25408935546875,-0.036712646484375
1760107195486201900,1.862201904296875,-0.8862457275390625,-0.2551727294921875,-0.0239715576171875
1760107195496266800,1.872266845703125,-0.8685455322265625,-0.253875732421875,-0.0169525146484375
1760107195506332000,1.882331787109375,-0.86346435546875,-0.2470855712890625,-0.0201416015625
1760107195516396800,1.892396728515625,-0.86572265625,-0.2431793212890625,-0.0293731689453125
1760107195526462700,1.902462646484375,-0.877105712890625,-0.2441558837890625,-0.0451812744140625
1760107195536528000,1.91252783203125,-0.8925628662109375,-0.24957275390625,-0.056640625
1760107195546592800,1.9225927734375,-0.9123687744140625,-0.2560272216796875,-0.0673980712890625
1760107195556657700,1.93265771484375,-0.92962646484375,-0.257843017578125,-0.07080078125
1760107195566722800,1.942722900390625,-0.9388275146484375,-0.2509307861328125,-0.0616455078125
1760107195576789000,1.9527890625,-0.9387359619140625,-0.2422027587890625,-0.0422515869140625
1760107195586853600,1.962853515625,-0.9414215087890625,-0.2338714599609375,-0.02154541015625
1760107195596918800,1.972918701171875,-0.945556640625,-0.229400634765625,-0.009307861328125
1760107195606984000,1.98298388671875,-0.9609527587890625,-0.2285614013671875,0.00262451171875
1760107195617048800,1.993048828125,-0.980499267578125,-0.22674560546875,0.0102996826171875
1760107195627114800,2.00311474609375,-0.991058349609375,-0.228302001953125,0.0200042724609375
1760107195637180000,2.013179931640625,-0.9818267822265625,-0.235626220703125,0.0311279296875
1760107195647245000,2.0232451171875,-0.9544219970703125,-0.2444915771484375,0.0429229736328125
1760107195657309700,2.033309814453125,-0.912872314453125,-0.2550506591796875,0.0501861572265625
1760107195667375900,2.0433759765625,-0.8648529052734375,-0.2728271484375,0.0406341552734375
1760107195677440800,2.053440673828125,-0.8360443115234375,-0.29718017578125,0.03143310546875
1760107195687505700,2.063505615234375,-0.8286590576171875,-0.3178558349609375,0.0234222412109375
1760107195697570800,2.07357080078125,-0.83074951171875,-0.324188232421875,0.006591796875
1760107195707636000,2.083635986328125,-0.8528289794921875,-0.324432373046875,0.0004730224609375
1760107195717702000,2.093701904296875,-0.8840484619140625,-0.3241119384765625,-0.00262451171875
1760107195727766800,2.103766845703125,-0.9121551513671875,-0.3204803466796875,-0.013336181640625
1760107195737832000,2.11383203125,-0.92919921875,-0.3157958984375,-0.016510009765625
1760107195747896800,2.123896728515625,-0.9357452392578125,-0.31915283203125,0.0043792724609375
1760107195757961700,2.133961669921875,-0.933380126953125,-0.3163604736328125,0.0281829833984375
1760107195768028000,2.14402783203125,-0.9184722900390625,-0.3038787841796875,0.039306640625
1760107195778092800,2.1540927734375,-0.9016571044921875,-0.3043212890625,0.0487060546875
1760107195788158000,2.164157958984375,-0.883636474609375,-0.3141632080078125,0.0550384521484375
1760107195798222800,2.174222900390625,-0.869873046875,-0.3242034912109375,0.0543670654296875
1760107195808287700,2.184287841796875,-0.87054443359375,-0.336151123046875,0.0424957275390625
1760107195818354000,2.19435400390625,-0.87841796875,-0.3460540771484375,0.0161285400390625
1760107195828418800,2.204418701171875,-0.881103515625,-0.3587799072265625,-0.0043182373046875
1760107195838483700,2.214483642578125,-0.8802642822265625,-0.3692626953125,-0.0103302001953125
1760107195848548900,2.224548828125,-0.88800048828125,-0.3615875244140625,-0.0130462646484375
1760107195858615000,2.234614990234375,-0.9129486083984375,-0.3412017822265625,-0.001861572265625
1760107195868679700,2.2446796875,-0.9575958251953125,-0.32135009765625,0.0444183349609375
1760107195878744800,2.254744873046875,-0.99371337890625,-0.3012237548828125,0.10565185546875
1760107195888810000,2.26481005859375,-1.00201416015625,-0.2926025390625,0.137786865234375
1760107195898875000,2.274875,-0.976287841796875,-0.290435791015625,0.1396636962890625
1760107195908940800,2.28494091796875,-0.938232421875,-0.3083953857421875,0.1287689208984375
1760107195919006000,2.295005859375,-0.9088287353515625,-0.341888427734375,0.11151123046875
1760107195929070600,2.305070556640625,-0.9105224609375,-0.372161865234375,0.101654052734375
1760107195939135700,2.3151357421875,-0.9441986083984375,-0.3861236572265625,0.0893096923828125
1760107195949201000,2.325200927734375,-0.9972076416015625,-0.378143310546875,0.0696868896484375
1760107195959266800,2.335266845703125,-1.04547119140625,-0.3574676513671875,0.054779052734375
1760107195969331700,2.345331787109375,-1.0693206787109375,-0.3376617431640625,0.0462646484375
1760107195979396900,2.35539697265625,-1.0682373046875,-0.329986572265625,0.04345703125
1760107195989462000,2.3654619140625,-1.04998779296875,-0.327606201171875,0.0391082763671875
1760107195999526700,2.375526611328125,-1.04083251953125,-0.3302764892578125,0.042938232421875
1760107196009592800,2.3855927734375,-1.0439605712890625,-0.3342132568359375,0.058807373046875
1760107196019657700,2.39565771484375,-1.0438232421875,-0.3349456787109375,0.0711822509765625
1760107196029723000,2.405722900390625,-1.03509521484375,-0.3345794677734375,0.0748291015625
1760107196039787800,2.415787841796875,-1.0330810546875,-0.3406524658203125,0.080078125
1760107196049853000,2.42585302734375,-1.0401611328125,-0.3557891845703125,0.0886383056640625
1760107196059918800,2.4359189453125,-1.0510711669921875,-0.370574951171875,0.0936126708984375
1760107196069983700,2.445983642578125,-1.0613250732421875,-0.37957763671875,0.08868408203125
1760107196080049000,2.456048828125,-1.06573486328125,-0.3782806396484375,0.0742340087890625
1760107196090113800,2.46611376953125,-1.0712432861328125,-0.36767578125,0.061065673828125
1760107196100180000,2.476179931640625,-1.0871429443359375,-0.3535614013671875,0.0488433837890625
1760107196110244900,2.486244873046875,-1.10675048828125,-0.3329315185546875,0.044189453125
1760107196120309800,2.496309814453125,-1.1178741455078125,-0.3050537109375,0.04931640625
1760107196130375000,2.506375,-1.1194915771484375,-0.275115966796875,0.055572509765625
1760107196140439800,2.516439697265625,-1.1059417724609375,-0.2519073486328125,0.055755615234375
1760107196150505700,2.526505615234375,-1.07257080078125,-0.238555908203125,0.051910400390625
1760107196160571000,2.53657080078125,-1.019866943359375,-0.2317047119140625,0.0469207763671875
1760107196170636000,2.546635986328125,-0.9789581298828125,-0.2306060791015625,0.0486907958984375
1760107196180700700,2.55670068359375,-0.9616546630859375,-0.228118896484375,0.061370849609375
1760107196190765800,2.566765869140625,-0.962799072265625,-0.2160797119140625,0.071044921875
1760107196200832000,2.57683203125,-0.9797515869140625,-0.2027587890625,0.0728759765625
1760107196210896600,2.586896728515625,-0.9928131103515625,-0.194610595703125,0.07000732421875
1760107196220961800,2.5969619140625,-0.9861907958984375,-0.1939697265625,0.0665283203125
1760107196231026700,2.607026611328125,-0.9573822021484375,-0.204254150390625,0.066009521484375
1760107196241091600,2.617091552734375,-0.9146575927734375,-0.2205810546875,0.065338134765625
1760107196251157500,2.627157470703125,-0.865997314453125,-0.2393035888671875,0.067840576171875
1760107196261222700,2.63722265625,-0.8231658935546875,-0.25128173828125,0.075347900390625
1760107196271287600,2.64728759765625,-0.807647705078125,-0.2551116943359375,0.074493408203125
1760107196281352400,2.6573525390625,-0.81695556640625,-0.256072998046875,0.0601806640625
1760107196291418600,2.667418701171875,-0.839996337890625,-0.2593841552734375,0.0496826171875
1760107196301483500,2.6774833984375,-0.8673553466796875,-0.2627716064453125,0.043212890625
1760107196311548400,2.68754833984375,-0.892059326171875,-0.2653961181640625,0.0399932861328125
1760107196321613600,2.697613525390625,-0.907135009765625,-0.2643280029296875,0.042938232421875
1760107196331678700,2.7076787109375,-0.9171905517578125,-0.263336181640625,0.0510711669921875
1760107196341744600,2.71774462890625,-0.926483154296875,-0.2609710693359375,0.0538787841796875
1760107196351809500,2.7278095703125,-0.93658447265625,-0.261077880859375,0.056671142578125
1760107196361874700,2.737874755859375,-0.9481353759765625,-0.265838623046875,0.0557098388671875
1760107196371939600,2.747939697265625,-0.955352783203125,-0.2724761962890625,0.0482940673828125
1760107196382004500,2.75800439453125,-0.957489013671875,-0.2781829833984375,0.04632568359375
1760107196392070700,2.768070556640625,-0.9547882080078125,-0.280670166015625,0.059967041015625
1760107196402135600,2.778135498046875,-0.946868896484375,-0.2744293212890625,0.0809173583984375
1760107196412200700,2.78820068359375,-0.9284515380859375,-0.2619781494140625,0.0955657958984375
1760107196422265600,2.798265625,-0.9070281982421875,-0.254425048828125,0.0999755859375
1760107196432330500,2.80833056640625,-0.8961029052734375,-0.2559814453125,0.1019134521484375
1760107196442396700,2.818396728515625,-0.8935546875,-0.26007080078125,0.092071533203125
1760107196452461600,2.828461669921875,-0.8975677490234375,-0.266387939453125,0.0738677978515625
1760107196462526500,2.8385263671875,-0.9069671630859375,-0.272491455078125,0.065338134765625
1760107196472591600,2.848591552734375,-0.9202117919921875,-0.275390625,0.0658416748046875
1760107196482656500,2.858656494140625,-0.9264984130859375,-0.2803955078125,0.0645904541015625
1760107196492722400,2.868722412109375,-0.9181671142578125,-0.28759765625,0.0570220947265625
1760107196502787600,2.87878759765625,-0.905181884765625,-0.2965850830078125,0.0481414794921875
1760107196512852700,2.888852783203125,-0.8995819091796875,-0.3077392578125,0.0392303466796875
1760107196522917600,2.898917724609375,-0.9013824462890625,-0.3180389404296875,0.0297393798828125
1760107196532982500,2.908982421875,-0.9059295654296875,-0.3252716064453125,0.022979736328125
1760107196543048700,2.919048583984375,-0.910675048828125,-0.33154296875,0.016510009765625
1760107196553113300,2.92911328125,-0.9143829345703125,-0.3379669189453125,0.019195556640625
1760107196563178500,2.939178466796875,-0.9221038818359375,-0.3432464599609375,0.02459716796875
1760107196573243600,2.94924365234375,-0.92352294921875,-0.344390869140625,0.01873779296875
1760107196583308800,2.959308837890625,-0.925018310546875,-0.3471527099609375,0.006561279296875
1760107196593374500,2.96937451171875,-0.929901123046875,-0.35760498046875,-0.0012054443359375
1760107196603439600,2.979439697265625,-0.933135986328125,-0.3684844970703125,-0.002838134765625
1760107196613504800,2.9895048828125,-0.9359588623046875,-0.3708343505859375,-0.003387451171875
1760107196623569400,2.9995693359375,-0.9356842041015625,-0.3695526123046875,-0.0068817138671875
1760107196633635600,3.009635498046875,-0.9362335205078125,-0.3657989501953125,-0.007232666015625
1760107196643700500,3.019700439453125,-0.9402923583984375,-0.3609771728515625,-0.009124755859375
1760107196653765600,3.029765625,-0.9529571533203125,-0.3602142333984375,-0.0110321044921875
1760107196663830500,3.03983056640625,-0.9704437255859375,-0.3610076904296875,-0.0111541748046875
1760107196673895700,3.049895751953125,-0.9911041259765625,-0.358001708984375,-0.01513671875
1760107196683961600,3.059961669921875,-1.0082244873046875,-0.3557281494140625,-0.02099609375
1760107196694026500,3.070026611328125,-1.0148162841796875,-0.3560638427734375,-0.02166748046875
1760107196704091600,3.080091552734375,-1.0094146728515625,-0.355804443359375,-0.01544189453125
1760107196714156500,3.090156494140625,-0.9976043701171875,-0.3544464111328125,-0.0059814453125
1760107196724221400,3.100221435546875,-0.987396240234375,-0.352508544921875,0.008514404296875
1760107196734287600,3.11028759765625,-0.9843292236328125,-0.3558197021484375,0.0280303955078125
1760107196744352500,3.1203525390625,-0.987060546875,-0.362274169921875,0.0474090576171875
1760107196754417700,3.130417724609375,-0.99578857421875,-0.363189697265625,0.0587005615234375
1760107196764482600,3.140482666015625,-1.00927734375,-0.362701416015625,0.05670166015625
1760107196774547500,3.15054736328125,-1.0264739990234375,-0.3608856201171875,0.048919677734375
1760107196784613600,3.160613525390625,-1.0466461181640625,-0.3563690185546875,0.0434112548828125
1760107196794678800,3.1706787109375,-1.06256103515625,-0.3513946533203125,0.03948974609375
1760107196804743400,3.180743408203125,-1.063873291015625,-0.3448028564453125,0.036651611328125
1760107196814808600,3.19080859375,-1.052032470703125,-0.33636474609375,0.040313720703125
1760107196824873700,3.200873779296875,-1.0346832275390625,-0.3241424560546875,0.0441741943359375
1760107196834939400,3.210939453125,-1.022003173828125,-0.3069610595703125,0.0490264892578125
1760107196845004500,3.221004638671875,-1.0103912353515625,-0.289306640625,0.0561676025390625
1760107196855069700,3.231069580078125,-1.0099639892578125,-0.2745819091796875,0.06121826171875
1760107196865134600,3.241134521484375,-1.017181396484375,-0.263275146484375,0.057098388671875
1760107196875199500,3.251199462890625,-1.03448486328125,-0.2545623779296875,0.0452423095703125
1760107196885265700,3.261265625,-1.060211181640625,-0.2482147216796875,0.02978515625
1760107196895330600,3.27133056640625,-1.0859222412109375,-0.244781494140625,0.0144805908203125
1760107196905395500,3.2813955078125,-1.1122894287109375,-0.2418975830078125,0.00286865234375
1760107196915460600,3.291460693359375,-1.117706298828125,-0.23406982421875,-0.00506591796875
1760107196925525800,3.30152587890625,-1.091827392578125,-0.229400634765625,-0.0048675537109375
1760107196935591700,3.311591796875,-1.038238525390625,-0.2353668212890625,0.0027313232421875
1760107196945656600,3.321656494140625,-0.9742279052734375,-0.2419281005859375,0.010711669921875
1760107196955721700,3.3317216796875,-0.926239013671875,-0.2454681396484375,0.0219879150390625
1760107196965786600,3.34178662109375,-0.9019775390625,-0.2415313720703125,0.026702880859375
1760107196975851500,3.3518515625,-0.8972320556640625,-0.2357177734375,0.0301666259765625
1760107196985917700,3.361917724609375,-0.9036407470703125,-0.2311553955078125,0.0350341796875
1760107196995982600,3.371982666015625,-0.9127349853515625,-0.222625732421875,0.0369415283203125
1760107197006047500,3.382047607421875,-0.9145050048828125,-0.215606689453125,0.029144287109375
1760107197016112600,3.392112548828125,-0.91131591796875,-0.2178192138671875,0.0157470703125
1760107197026178600,3.402178466796875,-0.9066009521484375,-0.2303314208984375,-0.0018768310546875
1760107197036243700,3.41224365234375,-0.90557861328125,-0.2465057373046875,-0.01776123046875
1760107197046308600,3.42230859375,-0.9097747802734375,-0.260528564453125,-0.02874755859375
1760107197056373500,3.43237353515625,-0.911834716796875,-0.2699737548828125,-0.0329132080078125
1760107197066438700,3.442438720703125,-0.9171142578125,-0.271820068359375,-0.0342559814453125
1760107197076503600,3.452503662109375,-0.9285430908203125,-0.2683258056640625,-0.0296783447265625
1760107197086569500,3.462569580078125,-0.9478912353515625,-0.2572021484375,-0.0121612548828125
1760107197096634600,3.472634521484375,-0.977630615234375,-0.24407958984375,0.0094757080078125
1760107197106699500,3.482699462890625,-1.00897216796875,-0.2324676513671875,0.0352325439453125
1760107197116764700,3.4927646484375,-1.02703857421875,-0.225677490234375,0.0598602294921875
1760107197126830600,3.50283056640625,-1.01788330078125,-0.2271575927734375,0.0768890380859375
1760107197136895700,3.512895751953125,-0.98187255859375,-0.2348480224609375,0.0840301513671875
1760107197146960400,3.52296044921875,-0.93212890625,-0.2503204345703125,0.08038330078125
1760107197157025500,3.533025634765625,-0.8793487548828125,-0.272979736328125,0.065185546875
1760107197167090700,3.543090576171875,-0.8414459228515625,-0.2994537353515625,0.040283203125
1760107197177156600,3.553156494140625,-0.8309173583984375,-0.3253936767578125,0.0137939453125
1760107197187221500,3.563221435546875,-0.847137451171875,-0.341827392578125,-0.0049896240234375
1760107197197286700,3.57328662109375,-0.877593994140625,-0.3444366455078125,-0.0085296630859375
1760107197207351800,3.583351806640625,-0.90869140625,-0.335845947265625,-0.0090789794921875
1760107197217416400,3.59341650390625,-0.925262451171875,-0.3253021240234375,-0.009735107421875
1760107197227482000,3.603482177734375,-0.9250030517578125,-0.3209075927734375,-0.0077972412109375
1760107197237547300,3.61354736328125,-0.915618896484375,-0.324310302734375,-0.00518798828125
1760107197247612000,3.62361181640625,-0.90081787109375,-0.3374176025390625,-0.0112457275390625
1760107197257677000,3.633677001953125,-0.881866455078125,-0.3521575927734375,-0.0181884765625
1760107197267742200,3.6437421875,-0.86907958984375,-0.3626556396484375,-0.025634765625
1760107197277808000,3.65380810546875,-0.8642120361328125,-0.369720458984375,-0.0284271240234375
1760107197287873000,3.663873046875,-0.8720703125,-0.3674163818359375,-0.0237884521484375
1760107197297938200,3.673938232421875,-0.8887481689453125,-0.3577880859375,-0.016937255859375
1760107197308003000,3.684003173828125,-0.900970458984375,-0.34588623046875,-0.00982666015625
1760107197318068000,3.69406787109375,-0.914886474609375,-0.3334197998046875,-0.0014495849609375
1760107197328134100,3.704134033203125,-0.927825927734375,-0.3286590576171875,0.0049896240234375
1760107197338199000,3.714198974609375,-0.9295501708984375,-0.3302001953125,0.005859375
1760107197348264000,3.724263916015625,-0.9273223876953125,-0.3356170654296875,0.0036773681640625
1760107197358329000,3.7343291015625,-0.918792724609375,-0.3462982177734375,0.0042724609375
1760107197368394200,3.744394287109375,-0.9077301025390625,-0.3563079833984375,0.0071563720703125
1760107197378460200,3.754460205078125,-0.896087646484375,-0.361419677734375,0.0098724365234375
1760107197388525000,3.764525146484375,-0.891876220703125,-0.3582000732421875,0.0074462890625
1760107197398590200,3.774590087890625,-0.899444580078125,-0.3556060791015625,0.0101776123046875
1760107197408655000,3.784655029296875,-0.9176483154296875,-0.353424072265625,0.0180816650390625
1760107197418720000,3.794719970703125,-0.944580078125,-0.3487091064453125,0.024627685546875
1760107197428786000,3.804785888671875,-0.9726104736328125,-0.3380584716796875,0.0264434814453125
1760107197438851000,3.81485107421875,-0.9996795654296875,-0.327301025390625,0.030487060546875
1760107197448916200,3.824916259765625,-1.0290069580078125,-0.32159423828125,0.0383758544921875
1760107197458981000,3.834981201171875,-1.0529632568359375,-0.31475830078125,0.0399322509765625
1760107197469046000,3.8450458984375,-1.072998046875,-0.3126373291015625,0.03057861328125
1760107197479112200,3.8551123046875,-1.080718994140625,-0.322296142578125,0.022552490234375
1760107197489177000,3.865177001953125,-1.0705108642578125,-0.34002685546875,0.0254974365234375
1760107197499242000,3.875241943359375,-1.0655364990234375,-0.3528900146484375,0.02398681640625
1760107197509307100,3.88530712890625,-1.0787353515625,-0.3616180419921875,0.0106353759765625
1760107197519372000,3.8953720703125,-1.094482421875,-0.3626251220703125,0.0088043212890625
1760107197529438000,3.90543798828125,-1.111724853515625,-0.3625640869140625,0.0192718505859375
1760107197539503000,3.915503173828125,-1.122955322265625,-0.3529052734375,0.032867431640625
1760107197549568300,3.925568359375,-1.131683349609375,-0.334991455078125,0.0401611328125
1760107197559633000,3.9356328125,-1.14556884765625,-0.3147735595703125,0.0354156494140625
1760107197569698000,3.945697998046875,-1.1567840576171875,-0.2948455810546875,0.0345458984375
1760107197579764200,3.95576416015625,-1.163970947265625,-0.2781219482421875,0.0336151123046875
1760107197589828900,3.965828857421875,-1.1604156494140625,-0.2595367431640625,0.03643798828125
1760107197599894000,3.97589404296875,-1.143035888671875,-0.239959716796875,0.049896240234375
1760107197609959200,3.985959228515625,-1.1097412109375,-0.22491455078125,0.0641021728515625
1760107197620024000,3.996024169921875,-1.0607147216796875,-0.2107391357421875,0.072357177734375
1760107197630090000,4.006090087890625,-1.02020263671875,-0.1977691650390625,0.0723419189453125
1760107197640155100,4.016155029296875,-1.005950927734375,-0.1884307861328125,0.0764617919921875
1760107197650220000,4.026219970703125,-1.0141143798828125,-0.1790771484375,0.0795440673828125
1760107197660285000,4.036284912109375,-1.0305938720703125,-0.1741943359375,0.0738983154296875
1760107197670350000,4.04635009765625,-1.0262908935546875,-0.172210693359375,0.058746337890625
1760107197680416000,4.056416015625,-0.9911041259765625,-0.182647705078125,0.0396881103515625
1760107197690481200,4.066481201171875,-0.938751220703125,-0.209228515625,0.020904541015625
1760107197700546000,4.076546142578125,-0.8821258544921875,-0.24114990234375,0.00592041015625
1760107197710611200,4.086611083984375,-0.8349609375,-0.2593994140625,0.0076904296875
1760107197720676000,4.096676025390625,-0.8048553466796875,-0.25811767578125,0.0172882080078125
1760107197730742000,4.106741943359375,-0.7959747314453125,-0.2553863525390625,0.03173828125
1760107197740807200,4.11680712890625,-0.8070831298828125,-0.2491455078125,0.04998779296875
1760107197750872000,4.1268720703125,-0.8374786376953125,-0.2414703369140625,0.062408447265625
1760107197760937000,4.13693701171875,-0.8770294189453125,-0.229400634765625,0.0626220703125
1760107197771002000,4.147002197265625,-0.9119873046875,-0.2231597900390625,0.05535888671875
1760107197781068000,4.157068115234375,-0.9327545166015625,-0.2276458740234375,0.0474853515625
1760107197791133200,4.16713330078125,-0.9403533935546875,-0.2377471923828125,0.032196044921875
1760107197801198000,4.177197998046875,-0.944976806640625,-0.2496795654296875,0.013824462890625
1760107197811263000,4.187262939453125,-0.9494781494140625,-0.261016845703125,-0.00048828125
1760107197821328100,4.197328125,-0.954254150390625,-0.267578125,-0.0001983642578125
1760107197831394300,4.207394287109375,-0.954132080078125,-0.268096923828125,0.0081634521484375
1760107197841459000,4.217458984375,-0.9510650634765625,-0.264495849609375,0.0255279541015625
1760107197851524000,4.227524169921875,-0.947021484375,-0.2579193115234375,0.0453338623046875
1760107197861589200,4.23758935546875,-0.9372711181640625,-0.2484130859375,0.060943603515625
1760107197871654100,4.247654052734375,-0.9261932373046875,-0.2482147216796875,0.0637054443359375
1760107197881720000,4.257719970703125,-0.916534423828125,-0.2512359619140625,0.0558624267578125
1760107197891785200,4.26778515625,-0.91912841796875,-0.25762939453125,0.0461578369140625
1760107197901850000,4.27785009765625,-0.9324798583984375,-0.2621917724609375,0.0323333740234375
1760107197911915000,4.2879150390625,-0.9518280029296875,-0.2632904052734375,0.016754150390625
1760107197921980200,4.297980224609375,-0.9655609130859375,-0.26544189453125,0.0099334716796875
1760107197932046000,4.308046142578125,-0.969879150390625,-0.27044677734375,0.0037689208984375
1760107197942111000,4.318111083984375,-0.9638671875,-0.2789459228515625,-0.0024261474609375
1760107197952176000,4.328176025390625,-0.9472808837890625,-0.289154052734375,-0.016998291015625
1760107197962241300,4.3382412109375,-0.927337646484375,-0.301971435546875,-0.03076171875
1760107197972306000,4.348305908203125,-0.9084014892578125,-0.315093994140625,-0.039794921875
1760107197982372000,4.3583720703125,-0.8901214599609375,-0.3233642578125,-0.03857421875
1760107197992437200,4.368437255859375,-0.8800048828125,-0.3258819580078125,-0.0295257568359375
1760107198002502000,4.378501953125,-0.8753814697265625,-0.326416015625,-0.0210418701171875
1760107198012567000,4.388567138671875,-0.878082275390625,-0.3252410888671875,-0.01416015625
1760107198022632200,4.398632080078125,-0.884521484375,-0.32342529296875,-0.01513671875
1760107198032698000,4.408697998046875,-0.890655517578125,-0.3260040283203125,-0.0231475830078125
1760107198042763000,4.418762939453125,-0.8959197998046875,-0.335968017578125,-0.028961181640625
1760107198052828200,4.428828125,-0.89752197265625,-0.345428466796875,-0.032318115234375
1760107198062893000,4.43889306640625,-0.9025726318359375,-0.35015869140625,-0.0323944091796875
1760107198072958000,4.4489580078125,-0.9133453369140625,-0.3478851318359375,-0.0348052978515625
1760107198083024100,4.459024169921875,-0.932403564453125,-0.3412322998046875,-0.038238525390625
1760107198093089000,4.469089111328125,-0.9542388916015625,-0.33648681640625,-0.04327392578125
1760107198103154200,4.479154296875,-0.9793548583984375,-0.335906982421875,-0.0468292236328125
1760107198113219000,4.489218994140625,-1.0181427001953125,-0.3386993408203125,-0.0439910888671875
1760107198123284200,4.4992841796875,-1.06097412109375,-0.3361358642578125,-0.040252685546875
1760107198133350100,4.50935009765625,-1.093292236328125,-0.328704833984375,-0.0417327880859375
1760107198143415000,4.5194150390625,-1.104156494140625,-0.3206024169921875,-0.0458526611328125
1760107198153480000,4.52947998046875,-1.096099853515625,-0.326141357421875,-0.0415496826171875
1760107198163545000,4.539545166015625,-1.0694427490234375,-0.34442138671875,-0.02642822265625
1760107198173610000,4.54960986328125,-1.0380859375,-0.3635711669921875,-0.01251220703125
1760107198183676000,4.559676025390625,-1.0095062255859375,-0.372650146484375,-0.0034637451171875
1760107198193741000,4.569740966796875,-0.9985504150390625,-0.371002197265625,-0.00970458984375
1760107198203806200,4.57980615234375,-1.0087890625,-0.368804931640625,-0.019073486328125
1760107198213871000,4.58987109375,-1.0308685302734375,-0.3649139404296875,-0.02294921875
1760107198223936000,4.59993603515625,-1.0496673583984375,-0.3576202392578125,-0.030975341796875
1760107198234003000,4.6100029296875,-1.049285888671875,-0.3479766845703125,-0.040191650390625
1760107198244067800,4.62006787109375,-1.028961181640625,-0.33148193359375,-0.0542755126953125
1760107198254133000,4.630133056640625,-1.0010833740234375,-0.3200531005859375,-0.05548095703125
1760107198264198100,4.6401982421875,-0.9860687255859375,-0.3106689453125,-0.039581298828125
1760107198274262800,4.6502626953125,-0.98663330078125,-0.301055908203125,-0.01068115234375
1760107198284329000,4.660328857421875,-0.99737548828125,-0.279266357421875,0.0147857666015625
1760107198294394000,4.67039404296875,-1.015838623046875,-0.2457275390625,0.0279693603515625
1760107198304458800,4.680458740234375,-1.042694091796875,-0.2185516357421875,0.0421142578125
1760107198314524000,4.69052392578125,-1.08642578125,-0.2100830078125,0.0435333251953125
1760107198324589000,4.700589111328125,-1.12554931640625,-0.222320556640625,0.0310821533203125
1760107198334655000,4.710655029296875,-1.12591552734375,-0.2373046875,0.01849365234375
1760107198344720000,4.720719970703125,-1.0730133056640625,-0.2464599609375,0.0066986083984375
1760107198354785000,4.730784912109375,-0.9924774169921875,-0.2533721923828125,0.0015869140625
1760107198364850000,4.740849853515625,-0.9222869873046875,-0.2624969482421875,0.001007080078125
1760107198374914800,4.750914794921875,-0.8759613037109375,-0.273834228515625,0.00244140625
1760107198384980000,4.76097998046875,-0.8516082763671875,-0.280120849609375,0.006988525390625
1760107198395046000,4.7710458984375,-0.843780517578125,-0.2777862548828125,0.0113525390625
1760107198405110800,4.78111083984375,-0.8484039306640625,-0.273712158203125,0.013641357421875
1760107198415176000,4.791176025390625,-0.8547821044921875,-0.2714080810546875,0.011322021484375
1760107198425241000,4.801240966796875,-0.8671417236328125,-0.27197265625,-0.0025482177734375
1760107198435306000,4.811305908203125,-0.882659912109375,-0.2790374755859375,-0.0280609130859375
1760107198445372000,4.821371826171875,-0.8951873779296875,-0.289764404296875,-0.0503082275390625
1760107198455437000,4.83143701171875,-0.9080352783203125,-0.30181884765625,-0.07171630859375
1760107198465502000,4.841501953125,-0.9292755126953125,-0.3081817626953125,-0.0812530517578125
1760107198475566800,4.85156689453125,-0.95550537109375,-0.3011016845703125,-0.0745086669921875
1760107198485632000,4.861632080078125,-0.984375,-0.28240966796875,-0.0624237060546875
1760107198495698000,4.871697998046875,-1.009857177734375,-0.268157958984375,-0.040313720703125
1760107198505763000,4.88176318359375,-1.0272064208984375,-0.26043701171875,-0.0037384033203125
1760107198515828000,4.891827880859375,-1.031341552734375,-0.25299072265625,0.02630615234375
1760107198525892900,4.901892822265625,-1.0177001953125,-0.244720458984375,0.04595947265625
1760107198535958000,4.9119580078125,-0.993865966796875,-0.241912841796875,0.0581512451171875
1760107198546024000,4.92202392578125,-0.9708709716796875,-0.2512359619140625,0.057891845703125
1760107198556088800,4.9320888671875,-0.9391937255859375,-0.268035888671875,0.046051025390625
1760107198566154000,4.942154052734375,-0.9067230224609375,-0.287139892578125,0.0295257568359375
1760107198576219000,4.952218994140625,-0.877410888671875,-0.306304931640625,0.0179901123046875
1760107198586284000,4.962283935546875,-0.8556671142578125,-0.3184051513671875,0.0148773193359375
1760107198596350000,4.972349853515625,-0.84625244140625,-0.332733154296875,0.0097503662109375
1760107198606415000,4.9824150390625,-0.8517608642578125,-0.339630126953125,0.0074920654296875
1760107198616480000,4.99247998046875,-0.863677978515625,-0.339569091796875,-0.0024871826171875
1760107198626545000,5.002544921875,-0.8773345947265625,-0.334991455078125,-0.0061492919921875
1760107198636610000,5.012610107421875,-0.8899078369140625,-0.32958984375,-0.0051116943359375
1760107198646676000,5.022676025390625,-0.8985443115234375,-0.3270416259765625,-0.002899169921875
1760107198656740900,5.032740966796875,-0.9036865234375,-0.32525634765625,0.00048828125
1760107198666806000,5.042805908203125,-0.9076080322265625,-0.323486328125,0.00677490234375
1760107198676871200,5.05287109375,-0.90771484375,-0.327911376953125,0.0123138427734375
1760107198686935800,5.062935791015625,-0.9077606201171875,-0.3331298828125,0.0234222412109375
1760107198697002000,5.073001953125,-0.90997314453125,-0.333740234375,0.0317535400390625
1760107198707067100,5.083067138671875,-0.9059906005859375,-0.3324432373046875,0.02783203125
1760107198717131800,5.0931318359375,-0.8992767333984375,-0.3371124267578125,0.020721435546875
1760107198727197000,5.103197021484375,-0.887603759765625,-0.3484954833984375,0.0133819580078125
1760107198737262000,5.113261962890625,-0.8783721923828125,-0.3631134033203125,0.007965087890625
1760107198747328000,5.123327880859375,-0.870513916015625,-0.3710479736328125,-0.0037689208984375
1760107198757393000,5.133392822265625,-0.864776611328125,-0.3793792724609375,-0.0067138671875
1760107198767458000,5.1434580078125,-0.867584228515625,-0.387237548828125,0.007537841796875
1760107198777523000,5.15352294921875,-0.8837127685546875,-0.389556884765625,0.01776123046875
1760107198787587800,5.163587890625,-0.91009521484375,-0.38470458984375,0.0132598876953125
1760107198797653000,5.173653076171875,-0.9399871826171875,-0.3815460205078125,0.0046539306640625
1760107198807719000,5.183718994140625,-0.962615966796875,-0.3841400146484375,0.002197265625
1760107198817784000,5.1937841796875,-0.9624176025390625,-0.386138916015625,0.00030517578125
1760107198827849000,5.203848876953125,-0.9557037353515625,-0.389251708984375,0.009674072265625
1760107198837914000,5.2139140625,-0.957916259765625,-0.38970947265625,0.02044677734375
1760107198847979000,5.22397900390625,-0.96868896484375,-0.386962890625,0.0257415771484375
1760107198858045000,5.234044921875,-0.9940338134765625,-0.3837890625,0.0284881591796875
1760107198868109800,5.24410986328125,-1.0282135009765625,-0.3855133056640625,0.029205322265625
1760107198878175000,5.254175048828125,-1.0538787841796875,-0.3894805908203125,0.0331573486328125
1760107198888239900,5.264239990234375,-1.0769805908203125,-0.3905487060546875,0.0384368896484375
1760107198898305000,5.274304931640625,-1.0888519287109375,-0.3955535888671875,0.049468994140625
1760107198908371000,5.284370849609375,-1.0870819091796875,-0.3987274169921875,0.06207275390625
1760107198918436000,5.29443603515625,-1.08892822265625,-0.3948211669921875,0.0626678466796875
1760107198928501000,5.3045009765625,-1.090423583984375,-0.38983154296875,0.0558013916015625
1760107198938566000,5.31456591796875,-1.08795166015625,-0.3917388916015625,0.0541229248046875
1760107198948631000,5.324631103515625,-1.0698394775390625,-0.39276123046875,0.0515899658203125
1760107198958697000,5.334697021484375,-1.0484619140625,-0.387969970703125,0.048797607421875
1760107198968761900,5.344761962890625,-1.0400238037109375,-0.3730316162109375,0.0518341064453125
1760107198978827000,5.354826904296875,-1.04833984375,-0.3436431884765625,0.0596466064453125
1760107198988892000,5.364891845703125,-1.0699310302734375,-0.3233184814453125,0.0626220703125
1760107198998956800,5.374956787109375,-1.08880615234375,-0.3034210205078125,0.06890869140625
1760107199009023000,5.38502294921875,-1.09210205078125,-0.284942626953125,0.07342529296875
1760107199019088100,5.395088134765625,-1.084686279296875,-0.272796630859375,0.0685577392578125
1760107199029152800,5.40515283203125,-1.0678863525390625,-0.2714080810546875,0.0518646240234375
1760107199039218000,5.415218017578125,-1.0438385009765625,-0.2763214111328125,0.0337066650390625
1760107199049283000,5.425282958984375,-1.027130126953125,-0.277557373046875,0.0188446044921875
1760107199059348000,5.435347900390625,-1.0079345703125,-0.2687530517578125,0.00970458984375
1760107199069414000,5.445413818359375,-0.981597900390625,-0.25537109375,0.0181884765625
1760107199079479000,5.45547900390625,-0.9475555419921875,-0.2469024658203125,0.0319061279296875
1760107199089544000,5.4655439453125,-0.9062652587890625,-0.2490997314453125,0.0435333251953125
1760107199099608800,5.47560888671875,-0.8741302490234375,-0.25909423828125,0.0530242919921875
1760107199109674000,5.485674072265625,-0.8528594970703125,-0.2676544189453125,0.0475006103515625
1760107199119740000,5.495739990234375,-0.8400421142578125,-0.2762298583984375,0.030364990234375
1760107199129804800,5.5058046875,-0.8322906494140625,-0.279510498046875,0.0166473388671875
1760107199139870000,5.515869873046875,-0.8363800048828125,-0.281036376953125,0.0047760009765625
1760107199149935000,5.52593505859375,-0.85504150390625,-0.282257080078125,0.00537109375
1760107199159999700,5.535999755859375,-0.876251220703125,-0.276519775390625,0.00836181640625
1760107199170066000,5.54606591796875,-0.8949737548828125,-0.265838623046875,0.007232666015625
1760107199180131000,5.556131103515625,-0.9136505126953125,-0.26275634765625,0.0085296630859375
1760107199190196000,5.566196044921875,-0.9382781982421875,-0.2613067626953125,0.0110015869140625
1760107199200260900,5.5762607421875,-0.9630889892578125,-0.263153076171875,0.01434326171875
1760107199210326000,5.586325927734375,-0.9813385009765625,-0.2752838134765625,0.0212249755859375
1760107199220392000,5.596391845703125,-0.989288330078125,-0.2763671875,0.021942138671875
1760107199230456600,5.60645654296875,-0.9780120849609375,-0.267425537109375,0.0272674560546875
1760107199240521700,5.616521728515625,-0.9456024169921875,-0.2666778564453125,0.0396270751953125
1760107199250586600,5.626586669921875,-0.9145660400390625,-0.2714080810546875,0.05902099609375
1760107199260651500,5.636651611328125,-0.8922882080078125,-0.2754669189453125,0.0658111572265625
1760107199270717700,5.6467177734375,-0.8853759765625,-0.28167724609375,0.059112548828125
1760107199280782600,5.656782470703125,-0.8874053955078125,-0.2913360595703125,0.0605621337890625
1760107199290847500,5.666847412109375,-0.8938140869140625,-0.3006439208984375,0.0628814697265625
1760107199300912600,5.67691259765625,-0.8976593017578125,-0.3020477294921875,0.063232421875
1760107199310977800,5.686977783203125,-0.9001007080078125,-0.302734375,0.0658111572265625
1760107199321042400,5.69704248046875,-0.9059906005859375,-0.2979278564453125,0.0633392333984375
1760107199331108600,5.707108642578125,-0.9154052734375,-0.29595947265625,0.0571746826171875
1760107199341173800,5.717173828125,-0.919708251953125,-0.29864501953125,0.05078125
1760107199351238700,5.72723876953125,-0.915771484375,-0.3040008544921875,0.0438995361328125
1760107199361303600,5.737303466796875,-0.907989501953125,-0.3111572265625,0.0352935791015625
1760107199371368700,5.74736865234375,-0.8997039794921875,-0.320098876953125,0.0298614501953125
1760107199381434600,5.7574345703125,-0.8946990966796875,-0.3259429931640625,0.026153564453125
1760107199391499500,5.76749951171875,-0.88922119140625,-0.32958984375,0.02056884765625
1760107199401564700,5.777564697265625,-0.887969970703125,-0.3368072509765625,0.0184783935546875
1760107199411629600,5.787629638671875,-0.8883819580078125,-0.34283447265625,0.0155181884765625
1760107199421694500,5.797694580078125,-0.8927001953125,-0.3471221923828125,0.0097503662109375
1760107199431760600,5.8077607421875,-0.8963165283203125,-0.3523101806640625,0.0051116943359375
1760107199441825500,5.817825439453125,-0.9039306640625,-0.358154296875,0.0057830810546875
1760107199451890700,5.827890625,-0.9085235595703125,-0.3641357421875,0.0048065185546875
1760107199461955600,5.83795556640625,-0.9044189453125,-0.3699798583984375,-0.00140380859375
1760107199472020700,5.848020751953125,-0.9007568359375,-0.3793792724609375,-0.0153350830078125
1760107199482085600,5.858085693359375,-0.9018402099609375,-0.3893280029296875,-0.025604248046875
1760107199492151800,5.86815185546875,-0.9069061279296875,-0.3946990966796875,-0.0333404541015625
1760107199502216700,5.878216796875,-0.924774169921875,-0.392333984375,-0.0399017333984375
1760107199512281600,5.888281494140625,-0.9539337158203125,-0.3875274658203125,-0.0428009033203125
1760107199522346800,5.8983466796875,-0.9918060302734375,-0.3795623779296875,-0.0376129150390625
1760107199532411600,5.90841162109375,-1.0308380126953125,-0.364288330078125,-0.0311431884765625
1760107199542477600,5.9184775390625,-1.0711517333984375,-0.350067138671875,-0.0215911865234375
1760107199552542700,5.928542724609375,-1.1000213623046875,-0.343109130859375,-0.0106964111328125
1760107199562607600,5.938607666015625,-1.1102142333984375,-0.3438262939453125,0.0007476806640625
1760107199572672500,5.948672607421875,-1.1020660400390625,-0.3525238037109375,0.004119873046875
1760107199582737700,5.958737548828125,-1.0738067626953125,-0.3670806884765625,0.01263427734375
1760107199592803800,5.968803955078125,-1.03778076171875,-0.37933349609375,0.0265350341796875
1760107199602868500,5.978868408203125,-1.00762939453125,-0.3793487548828125,0.0412445068359375
1760107199612933600,5.98893359375,-0.9930572509765625,-0.3762969970703125,0.0582275390625
1760107199622998800,5.998998779296875,-0.992431640625,-0.369781494140625,0.0670318603515625
1760107199633063700,6.009063720703125,-0.992889404296875,-0.354705810546875,0.0614471435546875
1760107199643129600,6.019129638671875,-0.9911346435546875,-0.329193115234375,0.0469207763671875
1760107199653194800,6.02919482421875,-1.0039215087890625,-0.300689697265625,0.0379791259765625
1760107199663259400,6.03925927734375,-1.0414276123046875,-0.2877349853515625,0.039306640625
1760107199673324500,6.049324462890625,-1.0965118408203125,-0.2808074951171875,0.0417938232421875
1760107199683389700,6.0593896484375,-1.1483154296875,-0.2602081298828125,0.0443267822265625
1760107199693454600,6.06945458984375,-1.1769866943359375,-0.2271575927734375,0.04095458984375
1760107199703520500,6.0795205078125,-1.1656494140625,-0.2037200927734375,0.02880859375
1760107199713585700,6.089585693359375,-1.1260833740234375,-0.20733642578125,0.01800537109375
1760107199723650800,6.09965087890625,-1.08526611328125,-0.2326812744140625,0.0157318115234375
1760107199733715500,6.109715576171875,-1.0451812744140625,-0.2600250244140625,0.0191802978515625
1760107199743780600,6.119780517578125,-1.0102996826171875,-0.2671661376953125,0.021240234375
1760107199753846500,6.129846435546875,-0.9796905517578125,-0.25543212890625,0.0211029052734375
1760107199763911700,6.13991162109375,-0.951416015625,-0.2413330078125,0.0316314697265625
1760107199773976600,6.1499765625,-0.93365478515625,-0.2390899658203125,0.0445709228515625
1760107199784041700,6.160041748046875,-0.9174041748046875,-0.245025634765625,0.045745849609375
1760107199794106600,6.170106689453125,-0.8978271484375,-0.2539825439453125,0.034027099609375
1760107199804172500,6.180172607421875,-0.8726959228515625,-0.263153076171875,0.018157958984375
1760107199814237700,6.19023779296875,-0.8509368896484375,-0.274658203125,0.0045318603515625
1760107199824302600,6.200302490234375,-0.83831787109375,-0.28948974609375,-0.0054473876953125
1760107199834367500,6.210367431640625,-0.8348541259765625,-0.3032989501953125,-0.0176239013671875
1760107199844432600,6.2204326171875,-0.8418121337890625,-0.3143157958984375,-0.029998779296875
1760107199854498600,6.23049853515625,-0.8611297607421875,-0.31817626953125,-0.0420379638671875
1760107199864563700,6.240563720703125,-0.88433837890625,-0.3169708251953125,-0.050506591796875
1760107199874628600,6.250628662109375,-0.90521240234375,-0.3098602294921875,-0.05572509765625
1760107199884693500,6.260693603515625,-0.929351806640625,-0.30242919921875,-0.05767822265625
1760107199894758700,6.270758544921875,-0.95166015625,-0.3003082275390625,-0.051605224609375
1760107199904823600,6.280823486328125,-0.964996337890625,-0.3001708984375,-0.0404510498046875
1760107199914889500,6.290889404296875,-0.9660186767578125,-0.30029296875,-0.024932861328125
1760107199924954600,6.30095458984375,-0.956329345703125,-0.2953033447265625,0.00347900390625
1760107199935019800,6.311019775390625,-0.9308013916015625,-0.288177490234375,0.0361175537109375
1760107199945084700,6.321084716796875,-0.9027099609375,-0.2841644287109375,0.0638885498046875
1760107199955149600,6.331149658203125,-0.883087158203125,-0.282073974609375,0.0818939208984375
1760107199965215700,6.3412158203125,-0.8706512451171875,-0.28369140625,0.08502197265625
1760107199975280600,6.35128076171875,-0.867645263671875,-0.29083251953125,0.0793609619140625
1760107199985345500,6.361345458984375,-0.8734588623046875,-0.3053436279296875,0.0646820068359375
1760107199995410700,6.37141064453125,-0.8790130615234375,-0.320404052734375,0.0467376708984375
1760107200005475600,6.3814755859375,-0.8886260986328125,-0.3296356201171875,0.0377044677734375
1760107200015541500,6.39154150390625,-0.899078369140625,-0.3309478759765625,0.0385284423828125
1760107200025606700,6.401606689453125,-0.91168212890625,-0.3300628662109375,0.0377655029296875
1760107200035671800,6.411671875,-0.9102783203125,-0.332427978515625,0.0350494384765625
1760107200045736400,6.421736328125,-0.8927459716796875,-0.338653564453125,0.0301055908203125
1760107200055801600,6.431801513671875,-0.86749267578125,-0.3531951904296875,0.0227813720703125
1760107200065866800,6.44186669921875,-0.8498382568359375,-0.3733367919921875,0.0150909423828125
1760107200075932400,6.451932373046875,-0.8468475341796875,-0.3878631591796875,0.01116943359375
1760107200085997600,6.46199755859375,-0.8539276123046875,-0.3912506103515625,0.0084381103515625
1760107200096062700,6.472062744140625,-0.870697021484375,-0.3879852294921875,0.009552001953125
1760107200106127600,6.482127685546875,-0.89581298828125,-0.384765625,0.02044677734375
1760107200116192500,6.492192626953125,-0.9181671142578125,-0.3783111572265625,0.0287628173828125
1760107200126258700,6.5022587890625,-0.935089111328125,-0.374481201171875,0.0276947021484375
1760107200136323600,6.512323486328125,-0.9483795166015625,-0.3797454833984375,0.0279998779296875
1760107200146388500,6.522388427734375,-0.9525299072265625,-0.39093017578125,0.0286407470703125
1760107200156453600,6.53245361328125,-0.9481201171875,-0.39862060546875,0.0264129638671875
1760107200166518800,6.542518798828125,-0.9372711181640625,-0.4028167724609375,0.0228118896484375
1760107200176584700,6.552584716796875,-0.9287109375,-0.4066009521484375,0.0199737548828125
1760107200186649600,6.562649658203125,-0.9325103759765625,-0.4048309326171875,0.0223541259765625
1760107200196714800,6.57271484375,-0.9546661376953125,-0.3951873779296875,0.0242919921875
1760107200206779600,6.582779541015625,-0.990020751953125,-0.381622314453125,0.023193359375
1760107200216844500,6.592844482421875,-1.035858154296875,-0.3708038330078125,0.0221405029296875
1760107200226909700,6.60290966796875,-1.071014404296875,-0.3625946044921875,0.0259857177734375
1760107200236975600,6.6129755859375,-1.108184814453125,-0.3549652099609375,0.0262908935546875
1760107200247040800,6.623040771484375,-1.1369171142578125,-0.3429718017578125,0.0239105224609375
1760107200257105700,6.633105712890625,-1.14923095703125,-0.3368682861328125,0.02362060546875
1760107200267170600,6.643170654296875,-1.1470794677734375,-0.3432159423828125,0.0244903564453125
1760107200277235700,6.653235595703125,-1.121734619140625,-0.3586883544921875,0.0255126953125
1760107200287302000,6.663302001953125,-1.067535400390625,-0.3728179931640625,0.0290679931640625
1760107200297366500,6.673366455078125,-1.004791259765625,-0.3779449462890625,0.0490875244140625
1760107200307431700,6.683431640625,-0.9553375244140625,-0.38116455078125,0.072784423828125
1760107200317496800,6.693496826171875,-0.919342041015625,-0.386688232421875,0.0897979736328125
1760107200327561700,6.703561767578125,-0.908721923828125,-0.386810302734375,0.087493896484375
1760107200337626600,6.713626708984375,-0.910614013671875,-0.3772125244140625,0.0717926025390625
1760107200347692800,6.72369287109375,-0.9279937744140625,-0.3711090087890625,0.055206298828125
1760107200357757700,6.7337578125,-0.9570770263671875,-0.3588104248046875,0.0308074951171875
1760107200367822600,6.743822509765625,-0.99371337890625,-0.3488311767578125,0.013824462890625
1760107200377887700,6.7538876953125,-1.01995849609375,-0.339874267578125,0.0039520263671875
1760107200387953000,6.763952880859375,-1.0318603515625,-0.32513427734375,-0.0063934326171875
1760107200398018600,6.7740185546875,-1.0447998046875,-0.31298828125,-0.023345947265625
1760107200408083700,6.784083740234375,-1.06982421875,-0.311279296875,-0.0331268310546875
1760107200418148900,6.79414892578125,-1.1013336181640625,-0.3119049072265625,-0.027923583984375
1760107200428213500,6.804213623046875,-1.1281585693359375,-0.2986907958984375,-0.009185791015625
1760107200438278700,6.814278564453125,-1.1240997314453125,-0.274261474609375,0.0143280029296875
1760107200448344800,6.8243447265625,-1.083984375,-0.245086669921875,0.041748046875
1760107200458409700,6.83440966796875,-1.018096923828125,-0.2282562255859375,0.066436767578125
1760107200468474600,6.844474609375,-0.9498443603515625,-0.2380828857421875,0.07647705078125
1760107200478539800,6.854539794921875,-0.8938446044921875,-0.2679443359375,0.0672454833984375
1760107200488604700,6.864604736328125,-0.856658935546875,-0.29742431640625,0.0395965576171875
1760107200498669600,6.874669677734375,-0.8390045166015625,-0.3173828125,0.0077362060546875
1760107200508735700,6.88473583984375,-0.834625244140625,-0.3262939453125,-0.0109405517578125
1760107200518800600,6.894800537109375,-0.835906982421875,-0.324462890625,-0.01348876953125
1760107200528865800,6.90486572265625,-0.84381103515625,-0.3160858154296875,-0.0114898681640625
1760107200538930700,6.9149306640625,-0.8589630126953125,-0.3052978515625,-0.0165557861328125
1760107200548995800,6.924995849609375,-0.8779754638671875,-0.2975006103515625,-0.022613525390625
1760107200559061800,6.935061767578125,-0.8923492431640625,-0.2946014404296875,-0.0267333984375
1760107200569126700,6.945126708984375,-0.8987579345703125,-0.293243408203125,-0.0279998779296875
1760107200579191800,6.95519189453125,-0.8976898193359375,-0.28955078125,-0.023895263671875
1760107200589256700,6.965256591796875,-0.89532470703125,-0.292877197265625,-0.003662109375
1760107200599321600,6.975321533203125,-0.889251708984375,-0.2895965576171875,0.02056884765625
1760107200609386800,6.98538671875,-0.87469482421875,-0.282989501953125,0.037841796875
1760107200619452700,6.99545263671875,-0.85919189453125,-0.2738800048828125,0.0516204833984375
1760107200629517800,7.005517822265625,-0.8410186767578125,-0.27703857421875,0.0665435791015625
1760107200639582700,7.015582763671875,-0.8231201171875,-0.2830963134765625,0.070404052734375
1760107200649647600,7.025647705078125,-0.8080902099609375,-0.2862548828125,0.0609283447265625
1760107200659712800,7.035712646484375,-0.8025665283203125,-0.2910614013671875,0.0529327392578125
1760107200669778700,7.04577880859375,-0.81878662109375,-0.3033599853515625,0.0375518798828125
1760107200679843600,7.055843505859375,-0.840850830078125,-0.31866455078125,0.0234222412109375
1760107200689908700,7.06590869140625,-0.862701416015625,-0.3262481689453125,0.012969970703125
1760107200699974000,7.075973876953125,-0.8736724853515625,-0.3286285400390625,0.0040130615234375
1760107200710038800,7.086038818359375,-0.8892364501953125,-0.339569091796875,-0.0004119873046875
1760107200720104700,7.096104736328125,-0.9026641845703125,-0.3520050048828125,0.0031280517578125
1760107200730169900,7.106169921875,-0.919097900390625,-0.3519439697265625,0.00213623046875
1760107200740234500,7.116234375,-0.9380950927734375,-0.3479766845703125,0.00537109375
1760107200750299600,7.126299560546875,-0.96002197265625,-0.346954345703125,0.009765625
1760107200760364800,7.13636474609375,-0.979156494140625,-0.3492279052734375,0.0169677734375
1760107200770429700,7.1464296875,-0.987152099609375,-0.351593017578125,0.0174407958984375
1760107200780495600,7.15649560546875,-0.9781494140625,-0.3587188720703125,0.0077056884765625
1760107200790560800,7.166560791015625,-0.9644622802734375,-0.373291015625,-0.00372314453125
1760107200800626000,7.1766259765625,-0.9450836181640625,-0.391693115234375,-0.015655517578125
1760107200810690600,7.186690673828125,-0.9319915771484375,-0.411041259765625,-0.028564453125
1760107200820755700,7.196755615234375,-0.929962158203125,-0.4247283935546875,-0.0417938232421875
1760107200830820900,7.20682080078125,-0.9427490234375,-0.420318603515625,-0.049835205078125
1760107200840886500,7.216886474609375,-0.9627838134765625,-0.4062347412109375,-0.05682373046875
1760107200850951700,7.22695166015625,-0.9853668212890625,-0.3902587890625,-0.0658721923828125
1760107200861016800,7.237016845703125,-1.0167694091796875,-0.378570556640625,-0.068359375
1760107200871081500,7.24708154296875,-1.0484619140625,-0.374481201171875,-0.06353759765625
1760107200881146600,7.257146728515625,-1.0672149658203125,-0.3703155517578125,-0.052947998046875
1760107200891212800,7.267212890625,-1.0647735595703125,-0.35797119140625,-0.0374908447265625
1760107200901277700,7.277277587890625,-1.048309326171875,-0.3410491943359375,-0.0116424560546875
1760107200911342600,7.287342529296875,-1.0337371826171875,-0.3246002197265625,0.0158233642578125
1760107200921407700,7.29740771484375,-1.01611328125,-0.3159637451171875,0.043914794921875
1760107200931473000,7.307472900390625,-1.00225830078125,-0.316070556640625,0.0716705322265625
1760107200941538800,7.317538818359375,-0.9854736328125,-0.3188018798828125,0.0915374755859375
1760107200951603700,7.327603759765625,-0.97137451171875,-0.323394775390625,0.09539794921875
1760107200961668600,7.337668701171875,-0.9674530029296875,-0.3326263427734375,0.083648681640625
1760107200971733800,7.347733642578125,-0.978485107421875,-0.3492584228515625,0.0624237060546875
1760107200981798700,7.357798583984375,-0.9921112060546875,-0.36480712890625,0.04254150390625
1760107200991863800,7.36786376953125,-1.00018310546875,-0.371673583984375,0.0264434814453125
1760107201001929700,7.3779296875,-0.996429443359375,-0.377288818359375,0.00555419921875
1760107201011994600,7.38799462890625,-0.9904327392578125,-0.38311767578125,-0.0106658935546875
1760107201022059800,7.398059814453125,-0.989593505859375,-0.3851776123046875,-0.0293731689453125
1760107201032124700,7.408124755859375,-0.989898681640625,-0.383880615234375,-0.0435638427734375
1760107201042189600,7.418189453125,-0.999908447265625,-0.380706787109375,-0.046783447265625
1760107201052254700,7.428254638671875,-1.0209808349609375,-0.37530517578125,-0.0424957275390625
1760107201062320600,7.438320556640625,-1.0555267333984375,-0.3600921630859375,-0.030181884765625
1760107201072385800,7.4483857421875,-1.1047515869140625,-0.326080322265625,-0.001739501953125
1760107201082450700,7.45845068359375,-1.144500732421875,-0.286407470703125,0.0323486328125
1760107201092515600,7.468515625,-1.1514739990234375,-0.2585906982421875,0.049407958984375
1760107201102580700,7.478580810546875,-1.13568115234375,-0.24609375,0.0521392822265625
1760107201112647000,7.48864697265625,-1.09320068359375,-0.2501983642578125,0.0385894775390625
1760107201122711600,7.498711669921875,-1.03594970703125,-0.2773895263671875,0.014190673828125
1760107201132776700,7.508776611328125,-0.973907470703125,-0.3099365234375,-0.0084991455078125
1760107201142841900,7.518841796875,-0.92333984375,-0.3336181640625,-0.0269317626953125
1760107201152906800,7.52890673828125,-0.888153076171875,-0.3389434814453125,-0.033782958984375
1760107201162972700,7.53897265625,-0.8582916259765625,-0.330322265625,-0.0326385498046875
1760107201173037800,7.549037841796875,-0.8383636474609375,-0.3189697265625,-0.0274658203125
1760107201183102700,7.559102783203125,-0.8279266357421875,-0.309234619140625,-0.021514892578125
1760107201193167600,7.569167724609375,-0.8346710205078125,-0.3047637939453125,-0.01983642578125
1760107201203232800,7.579232666015625,-0.8589935302734375,-0.30596923828125,-0.0278167724609375
1760107201213297700,7.589297607421875,-0.892547607421875,-0.310272216796875,-0.0457916259765625
1760107201223363600,7.599363525390625,-0.920928955078125,-0.315826416015625,-0.065826416015625
1760107201233428500,7.609428466796875,-0.9376373291015625,-0.3153228759765625,-0.082672119140625
1760107201243493600,7.61949365234375,-0.942840576171875,-0.31561279296875,-0.083892822265625
1760107201253558300,7.629558349609375,-0.9375762939453125,-0.3138885498046875,-0.0635223388671875
1760107201263623400,7.63962353515625,-0.923492431640625,-0.30291748046875,-0.0346832275390625
1760107201273688600,7.6496884765625,-0.909942626953125,-0.287750244140625,-0.00811767578125
1760107201283754200,7.659754150390625,-0.9052734375,-0.2772216796875,0.01068115234375
1760107201293819400,7.6698193359375,-0.910003662109375,-0.272735595703125,0.022308349609375
1760107201303884500,7.679884521484375,-0.9164581298828125,-0.273681640625,0.0289764404296875
1760107201313949400,7.689949462890625,-0.9195098876953125,-0.2787628173828125,0.0372314453125
1760107201324014300,7.700014404296875,-0.919677734375,-0.2869720458984375,0.0448150634765625
1760107201334080500,7.71008056640625,-0.9150238037109375,-0.293670654296875,0.0458221435546875
1760107201344145700,7.720145751953125,-0.9045867919921875,-0.3016357421875,0.0425872802734375
1760107201354210300,7.730210205078125,-0.888397216796875,-0.3143310546875,0.0337982177734375
1760107201364275500,7.740275390625,-0.8701324462890625,-0.334228515625,0.019866943359375
1760107201374340600,7.750340576171875,-0.8620452880859375,-0.3529510498046875,0.00830078125
1760107201384405200,7.7604052734375,-0.860107421875,-0.3620758056640625,-0.0019683837890625
1760107201394471400,7.770471435546875,-0.862884521484375,-0.3618011474609375,0.0014495849609375
1760107201404536600,7.78053662109375,-0.8690948486328125,-0.3567047119140625,0.01220703125
1760107201414601500,7.7906015625,-0.876251220703125,-0.3526611328125,0.0252685546875
1760107201424666400,7.800666259765625,-0.87640380859375,-0.349395751953125,0.038818359375
1760107201434731500,7.8107314453125,-0.8662567138671875,-0.352142333984375,0.0430450439453125
1760107201444797400,7.82079736328125,-0.8504638671875,-0.36138916015625,0.0417938232421875
1760107201454862300,7.8308623046875,-0.834808349609375,-0.37579345703125,0.0324249267578125
1760107201464927500,7.840927490234375,-0.8277740478515625,-0.39349365234375,0.014312744140625
1760107201474992600,7.85099267578125,-0.8344879150390625,-0.4062652587890625,-0.0052947998046875
1760107201485057300,7.861057373046875,-0.8497314453125,-0.4135894775390625,-0.014190673828125
1760107201495122400,7.871122314453125,-0.8715057373046875,-0.4147491455078125,-0.0094146728515625
1760107201505188400,7.881188232421875,-0.892364501953125,-0.4058074951171875,-0.001373291015625
1760107201515253500,7.89125341796875,-0.910003662109375,-0.3932647705078125,0.011322021484375
1760107201525318400,7.901318359375,-0.9143218994140625,-0.385711669921875,0.0218353271484375
1760107201535383600,7.911383544921875,-0.9031219482421875,-0.3881988525390625,0.0249481201171875
1760107201545448400,7.921448486328125,-0.8881378173828125,-0.400054931640625,0.0175323486328125
1760107201555514400,7.931514404296875,-0.877838134765625,-0.4147491455078125,0.0027313232421875
1760107201565579500,7.94157958984375,-0.8860931396484375,-0.4252777099609375,-0.0123138427734375
1760107201575644400,7.95164453125,-0.911468505859375,-0.4379425048828125,-0.014739990234375
1760107201585709600,7.96170947265625,-0.9501495361328125,-0.4415283203125,-0.004425048828125
1760107201595774500,7.9717744140625,-0.9944000244140625,-0.4243011474609375,-0.0016937255859375
1760107201605839600,7.981839599609375,-1.0367279052734375,-0.40521240234375,0.0011444091796875
1760107201615905500,7.991905517578125,-1.067718505859375,-0.39202880859375,0.0145721435546875
1760107201625970400,8.001970458984376,-1.0847015380859375,-0.38458251953125,0.0286712646484375
1760107201636035300,8.012035400390625,-1.0865478515625,-0.3800506591796875,0.038665771484375
1760107201646100500,8.0221005859375,-1.08551025390625,-0.3818359375,0.0416107177734375
1760107201656165400,8.032165283203126,-1.0929718017578125,-0.3944244384765625,0.0329437255859375
1760107201666231300,8.042231201171875,-1.0963287353515625,-0.4080047607421875,0.0265960693359375
1760107201676296400,8.05229638671875,-1.0955352783203125,-0.41278076171875,0.0298919677734375
1760107201686361600,8.062361572265624,-1.08831787109375,-0.40765380859375,0.0393829345703125
1760107201696426500,8.072426513671875,-1.0767059326171875,-0.401580810546875,0.055267333984375
1760107201706491400,8.082491455078125,-1.0700531005859375,-0.3932952880859375,0.0661773681640625
1760107201716556500,8.092556640625,-1.0730438232421875,-0.3779296875,0.062103271484375
1760107201726622500,8.10262255859375,-1.0858001708984375,-0.369659423828125,0.0726470947265625
1760107201736687400,8.112687255859376,-1.104827880859375,-0.357666015625,0.0785064697265625
1760107201746752500,8.12275244140625,-1.1227874755859375,-0.330047607421875,0.0755767822265625
1760107201756817400,8.1328173828125,-1.1297760009765625,-0.29815673828125,0.072052001953125
1760107201766882300,8.14288232421875,-1.12591552734375,-0.277252197265625,0.0721893310546875
1760107201776947500,8.152947509765625,-1.1134796142578125,-0.267852783203125,0.0694580078125
1760107201787013600,8.163013671875,-1.096099853515625,-0.2637176513671875,0.0675201416015625
1760107201797078300,8.173078369140624,-1.0704193115234375,-0.264129638671875,0.06500244140625
1760107201807143400,8.183143310546875,-1.0210723876953125,-0.2600250244140625,0.059478759765625
1760107201817208600,8.19320849609375,-0.963470458984375,-0.255218505859375,0.0510406494140625
1760107201827273500,8.2032734375,-0.905853271484375,-0.2640533447265625,0.04351806640625
1760107201837339400,8.21333935546875,-0.8618927001953125,-0.2839508056640625,0.0450897216796875
1760107201847404500,8.223404541015626,-0.8358612060546875,-0.2989959716796875,0.0527496337890625
1760107201857469400,8.233469482421874,-0.833251953125,-0.3036956787109375,0.0527801513671875
1760107201867534300,8.243534423828125,-0.84149169921875,-0.3047332763671875,0.04632568359375
1760107201877599500,8.253599609375,-0.857574462890625,-0.3002166748046875,0.039276123046875
1760107201887664600,8.26366455078125,-0.867401123046875,-0.29345703125,0.0365753173828125
1760107201897730300,8.273730224609375,-0.874420166015625,-0.2915191650390625,0.0290374755859375
1760107201907795500,8.28379541015625,-0.8758697509765625,-0.294281005859375,0.0183868408203125
1760107201917860600,8.293860595703125,-0.8721466064453125,-0.300689697265625,0.00836181640625
1760107201927925200,8.30392529296875,-0.8696441650390625,-0.3048248291015625,-0.0027618408203125
1760107201937990400,8.313990478515626,-0.8785552978515625,-0.3072357177734375,-0.0093994140625
1760107201948055600,8.3240556640625,-0.8982696533203125,-0.3118743896484375,-0.0035247802734375
1760107201958121500,8.33412158203125,-0.9303131103515625,-0.3091888427734375,0.0035247802734375
1760107201968186400,8.344186279296874,-0.96514892578125,-0.29962158203125,0.0123443603515625
1760107201978251500,8.35425146484375,-0.99066162109375,-0.2886505126953125,0.020904541015625
1760107201988316400,8.36431640625,-0.991912841796875,-0.2816162109375,0.0288238525390625
1760107201998381300,8.37438134765625,-0.9660491943359375,-0.284423828125,0.0356903076171875
1760107202008446500,8.384446533203125,-0.9276885986328125,-0.297393798828125,0.0339508056640625
1760107202018512400,8.394512451171876,-0.8871002197265625,-0.3143157958984375,0.0238037109375
1760107202028577500,8.40457763671875,-0.8551788330078125,-0.3300323486328125,0.0190887451171875
1760107202038642400,8.414642333984375,-0.8441009521484375,-0.34075927734375,0.0167388916015625
1760107202048707600,8.42470751953125,-0.854461669921875,-0.34295654296875,0.0125885009765625
1760107202058772500,8.4347724609375,-0.876251220703125,-0.337677001953125,0.0050811767578125
1760107202068838400,8.44483837890625,-0.897247314453125,-0.3353118896484375,0.0006103515625
1760107202078903600,8.454903564453126,-0.9035491943359375,-0.3379058837890625,-0.001190185546875
1760107202088968400,8.464968505859375,-0.8965301513671875,-0.342864990234375,-0.0030059814453125
1760107202099033300,8.475033447265625,-0.8827362060546875,-0.347412109375,-0.006072998046875
1760107202109098500,8.485098388671876,-0.8650665283203125,-0.3519287109375,-0.008148193359375
1760107202119163400,8.495163330078125,-0.8522491455078125,-0.3568267822265625,-0.00738525390625
1760107202129229600,8.5052294921875,-0.8501739501953125,-0.3607330322265625,-0.0032501220703125
1760107202139294500,8.51529443359375,-0.8600616455078125,-0.3592681884765625,0.003631591796875
1760107202149359400,8.525359375,-0.8709564208984375,-0.3531036376953125,0.001953125
1760107202159424500,8.535424560546875,-0.8795318603515625,-0.3509674072265625,-0.00537109375
1760107202169489400,8.545489501953124,-0.887786865234375,-0.357818603515625,-0.0114593505859375
1760107202179555300,8.555555419921875,-0.8905792236328125,-0.371307373046875,-0.0115814208984375
1760107202189620500,8.565620361328126,-0.893341064453125,-0.381317138671875,-0.012359619140625
1760107202199685600,8.575685546875,-0.8921051025390625,-0.3838043212890625,-0.016754150390625
1760107202209750500,8.58575048828125,-0.894195556640625,-0.384765625,-0.0209808349609375
1760107202219815400,8.5958154296875,-0.910125732421875,-0.3861236572265625,-0.019683837890625
1760107202229880800,8.605880859375,-0.9374237060546875,-0.3854827880859375,-0.0128173828125
1760107202239946500,8.615946533203125,-0.9805908203125,-0.3792266845703125,-0.015838623046875
1760107202250011600,8.62601171875,-1.019256591796875,-0.3730010986328125,-0.027374267578125
1760107202260076800,8.636076904296875,-1.0535736083984375,-0.3697052001953125,-0.0407257080078125
1760107202270141700,8.6461416015625,-1.06768798828125,-0.3711700439453125,-0.052490234375
1760107202280206600,8.65620654296875,-1.0621337890625,-0.3795928955078125,-0.0590362548828125
1760107202290271700,8.666271728515625,-1.047760009765625,-0.3934478759765625,-0.0581207275390625
1760107202300337700,8.676337646484376,-1.03057861328125,-0.407440185546875,-0.0377044677734375
1760107202310402600,8.686402587890624,-1.0032501220703125,-0.407012939453125,-0.0078277587890625
1760107202320467700,8.6964677734375,-0.968780517578125,-0.4015045166015625,0.0110626220703125
1760107202330532900,8.706532958984376,-0.9459381103515625,-0.4026031494140625,0.0133514404296875
1760107202340597500,8.716597412109374,-0.9319915771484375,-0.39947509765625,0.0181732177734375
1760107202350662700,8.72666259765625,-0.9250030517578125,-0.4063873291015625,0.0169525146484375
1760107202360728800,8.736728759765626,-0.92010498046875,-0.4127044677734375,-0.0013275146484375
1760107202370793700,8.746793701171875,-0.92041015625,-0.410797119140625,-0.0213165283203125
1760107202380858600,8.756858642578125,-0.93438720703125,-0.400543212890625,-0.032928466796875
1760107202390923800,8.766923828125,-0.9683837890625,-0.38128662109375,-0.0277557373046875
1760107202400989000,8.776989013671875,-1.018402099609375,-0.3555145263671875,-0.01373291015625
1760107202411054600,8.7870546875,-1.0681304931640625,-0.323272705078125,-0.002899169921875
1760107202421119700,8.79711962890625,-1.1041107177734375,-0.2922821044921875,-0.0015869140625
1760107202431185000,8.807184814453125,-1.118865966796875,-0.270538330078125,-0.00836181640625
1760107202441249500,8.81724951171875,-1.1282196044921875,-0.269378662109375,-0.01568603515625
1760107202451314700,8.827314697265624,-1.137237548828125,-0.282928466796875,-0.021728515625
1760107202461379800,8.8373798828125,-1.1282196044921875,-0.2895660400390625,-0.0290069580078125
1760107202471445800,8.84744580078125,-1.0938720703125,-0.285614013671875,-0.0325469970703125
1760107202481510700,8.8575107421875,-1.049224853515625,-0.28094482421875,-0.029052734375
1760107202491575800,8.867575927734375,-1.00433349609375,-0.276397705078125,-0.0198822021484375
1760107202501640700,8.877640625,-0.965423583984375,-0.27386474609375,-0.010894775390625
1760107202511705600,8.88770556640625,-0.9336090087890625,-0.273834228515625,-0.010223388671875
1760107202521771800,8.897771728515625,-0.906463623046875,-0.2750396728515625,-0.0236358642578125
1760107202531836700,8.907836669921876,-0.8876953125,-0.28033447265625,-0.0454254150390625
1760107202541901600,8.917901611328125,-0.8746795654296875,-0.292694091796875,-0.07330322265625
1760107202551966700,8.927966796875,-0.861724853515625,-0.3100738525390625,-0.0912017822265625
1760107202562031900,8.938031982421874,-0.848541259765625,-0.32464599609375,-0.0951080322265625
1760107202572096500,8.948096435546875,-0.8369903564453125,-0.330718994140625,-0.09112548828125
1760107202582162700,8.95816259765625,-0.83905029296875,-0.3295135498046875,-0.08172607421875
1760107202592227600,8.9682275390625,-0.870513916015625,-0.329010009765625,-0.065032958984375
1760107202602292700,8.978292724609375,-0.9200592041015625,-0.32049560546875,-0.04595947265625
1760107202612357600,8.988357666015625,-0.972900390625,-0.3045501708984375,-0.034149169921875
1760107202622422800,8.9984228515625,-1.006256103515625,-0.2920074462890625,-0.02557373046875
1760107202632487700,9.00848779296875,-1.00689697265625,-0.29315185546875,-0.009124755859375
1760107202642553900,9.018553955078126,-0.9795379638671875,-0.3038482666015625,0.0080413818359375
1760107202652618800,9.02861865234375,-0.9392547607421875,-0.3199462890625,0.0214385986328125
1760107202662683600,9.03868359375,-0.8953094482421875,-0.330810546875,0.0207977294921875
1760107202672748800,9.048748779296876,-0.8580780029296875,-0.33758544921875,0.014404296875
1760107202682813700,9.058813720703125,-0.8434600830078125,-0.3504791259765625,0.027862548828125
1760107202692878800,9.06887890625,-0.8440704345703125,-0.355255126953125,0.0421295166015625
1760107202702944800,9.07894482421875,-0.8456878662109375,-0.3489532470703125,0.03192138671875
1760107202713009700,9.089009765625,-0.845947265625,-0.344085693359375,0.0211944580078125
1760107202723074600,9.099074462890625,-0.8431396484375,-0.3562774658203125,0.014373779296875
1760107202733139700,9.1091396484375,-0.8375244140625,-0.377838134765625,0.0074462890625
1760107202743204600,9.11920458984375,-0.8380126953125,-0.3946685791015625,-0.01611328125
1760107202753269800,9.129269775390625,-0.84161376953125,-0.408660888671875,-0.04315185546875
1760107202763335700,9.139335693359374,-0.8367919921875,-0.4134979248046875,-0.0473480224609375
1760107202773400800,9.14940087890625,-0.8349609375,-0.4062957763671875,-0.037506103515625
1760107202783465700,9.1594658203125,-0.84197998046875,-0.3957061767578125,-0.0257110595703125
1760107202793530600,9.169530517578124,-0.856964111328125,-0.3875579833984375,-0.01495361328125
1760107202803595800,9.179595703125,-0.8788299560546875,-0.3853912353515625,-0.0074615478515625
1760107202813661700,9.18966162109375,-0.9044647216796875,-0.390838623046875,-0.0057830810546875
1760107202823726600,9.1997265625,-0.9274444580078125,-0.390533447265625,0.0015716552734375
1760107202833791700,9.209791748046875,-0.94915771484375,-0.392333984375,0.0032806396484375
1760107202843857000,9.21985693359375,-0.9576568603515625,-0.39630126953125,-0.0026092529296875
1760107202853921500,9.229921630859375,-0.9522857666015625,-0.402374267578125,-0.006988525390625
1760107202863986700,9.239986572265625,-0.9481658935546875,-0.4077606201171875,-0.0066680908203125
1760107202874052900,9.250052978515624,-0.94354248046875,-0.4102783203125,-0.0029144287109375
1760107202884117500,9.260117431640625,-0.942047119140625,-0.40869140625,0.000091552734375
1760107202894182700,9.2701826171875,-0.9429931640625,-0.4081573486328125,-0.0044403076171875
1760107202904247800,9.280247802734374,-0.9495086669921875,-0.414276123046875,-0.004425048828125
1760107202914312700,9.290312744140625,-0.9631195068359375,-0.4224395751953125,-0.0024261474609375
1760107202924377600,9.300377685546875,-0.9708709716796875,-0.42071533203125,-0.0022125244140625
1760107202934443800,9.31044384765625,-0.9741668701171875,-0.4167938232421875,-0.00238037109375
1760107202944508700,9.3205087890625,-0.9825439453125,-0.415283203125,-0.0038299560546875
1760107202954573600,9.330573486328126,-0.9984588623046875,-0.417327880859375,-0.0049591064453125
1760107202964638700,9.340638671875,-1.0222320556640625,-0.41668701171875,0.000732421875
1760107202974703900,9.350703857421875,-1.0388336181640625,-0.4105682373046875,0.0179290771484375
1760107202984768500,9.3607685546875,-1.04705810546875,-0.4036865234375,0.0357513427734375
1760107202994834700,9.370834716796875,-1.043243408203125,-0.397247314453125,0.055633544921875
1760107203004899800,9.38089990234375,-1.0295562744140625,-0.3954925537109375,0.0797882080078125
1760107203014964700,9.39096484375,-1.0070037841796875,-0.407562255859375,0.0953826904296875
1760107203025029600,9.401029541015625,-0.9972381591796875,-0.4211273193359375,0.1008758544921875
1760107203035094800,9.4110947265625,-0.9992828369140625,-0.430084228515625,0.11236572265625
1760107203045160000,9.421159912109376,-0.9960784912109375,-0.432861328125,0.1277618408203125
1760107203055225600,9.4312255859375,-0.9783172607421875,-0.4260711669921875,0.1277923583984375
1760107203065290800,9.441290771484375,-0.96392822265625,-0.4264678955078125,0.107025146484375
1760107203075355600,9.451355712890624,-0.9706268310546875,-0.40557861328125,0.0863800048828125
1760107203085420500,9.461420654296875,-1.0294952392578125,-0.394866943359375,0.0890350341796875
1760107203095485700,9.471485595703125,-1.106170654296875,-0.39349365234375,0.09661865234375
1760107203105550800,9.48155078125,-1.1775054931640625,-0.3671722412109375,0.0768280029296875
1760107203115616800,9.49161669921875,-1.218719482421875,-0.324249267578125,0.053436279296875
1760107203125681700,9.501681640625,-1.21270751953125,-0.292816162109375,0.0302581787109375
1760107203135746800,9.511746826171875,-1.1795806884765625,-0.2900848388671875,0.0113677978515625
1760107203145811700,9.521811767578125,-1.1371307373046875,-0.3052520751953125,-0.000823974609375
1760107203155876600,9.531876708984376,-1.0964202880859375,-0.3234100341796875,0.001190185546875
1760107203165942800,9.54194287109375,-1.042938232421875,-0.3236846923828125,0.0028839111328125
1760107203176007700,9.552007568359375,-0.98223876953125,-0.3162994384765625,-0.0113677978515625
1760107203186072600,9.562072509765626,-0.9137725830078125,-0.3127899169921875,-0.011260986328125
1760107203196137700,9.5721376953125,-0.843841552734375,-0.32354736328125,-0.00067138671875
1760107203206202600,9.58220263671875,-0.77130126953125,-0.3384552001953125,-0.008880615234375
1760107203216267500,9.592267578125,-0.7192535400390625,-0.3582305908203125,-0.0278778076171875
1760107203226333700,9.602333740234375,-0.69354248046875,-0.3781890869140625,-0.0308074951171875
1760107203236398300,9.6123984375,-0.70550537109375,-0.387847900390625,-0.024139404296875
1760107203246463200,9.622463134765624,-0.738128662109375,-0.3792877197265625,-0.008514404296875
1760107203256528400,9.6325283203125,-0.7881927490234375,-0.359619140625,0.0063323974609375
1760107203266593300,9.64259326171875,-0.843902587890625,-0.3381805419921875,0.02008056640625
1760107203276658200,9.652658203125,-0.88671875,-0.321807861328125,0.0254974365234375
1760107203286724400,9.662724365234375,-0.915618896484375,-0.3150482177734375,0.019256591796875
1760107203296789500,9.67278955078125,-0.9331207275390625,-0.31976318359375,0.0114288330078125
1760107203306854100,9.682854248046874,-0.9315185546875,-0.31719970703125,0.0104217529296875
1760107203316919300,9.692919189453125,-0.9156646728515625,-0.32568359375,0.0195770263671875
1760107203326984400,9.702984375,-0.8928070068359375,-0.3341217041015625,0.023529052734375
1760107203337049300,9.71304931640625,-0.8695526123046875,-0.335845947265625,0.029083251953125
1760107203347115300,9.723115234375,-0.8539276123046875,-0.3369293212890625,0.0369720458984375
1760107203357180400,9.733180419921876,-0.8516845703125,-0.3379669189453125,0.0559844970703125
1760107203367245300,9.743245361328125,-0.85711669921875,-0.331512451171875,0.0705718994140625
1760107203377310200,9.753310302734375,-0.8643798828125,-0.3178863525390625,0.071990966796875
1760107203387375400,9.763375244140626,-0.8681640625,-0.3099517822265625,0.06610107421875
1760107203397440500,9.7734404296875,-0.862579345703125,-0.3118438720703125,0.0517578125
1760107203407506200,9.783506103515625,-0.8535919189453125,-0.3205413818359375,0.034515380859375
1760107203417571300,9.7935712890625,-0.8443450927734375,-0.3390960693359375,0.00616455078125
1760107203427636500,9.803636474609375,-0.836090087890625,-0.360504150390625,-0.020965576171875
1760107203437701000,9.813701171875,-0.8340911865234375,-0.3773651123046875,-0.0272979736328125
1760107203447766300,9.823766357421874,-0.8437042236328125,-0.3792572021484375,-0.0206756591796875
1760107203457831400,9.83383154296875,-0.858612060546875,-0.3652191162109375,-0.0074920654296875
1760107203467897300,9.8438974609375,-0.87115478515625,-0.350616455078125,-0.0013427734375
1760107203477962200,9.853962158203124,-0.8746795654296875,-0.3423004150390625,0.0019378662109375
1760107203488027400,9.86402734375,-0.8798370361328125,-0.3453826904296875,-0.0042877197265625
1760107203498092300,9.87409228515625,-0.884368896484375,-0.3544158935546875,-0.0213775634765625
1760107203508157200,9.8841572265625,-0.891082763671875,-0.3634033203125,-0.03173828125
1760107203518222300,9.894222412109375,-0.9071502685546875,-0.3727569580078125,-0.0246124267578125
1760107203528288300,9.904288330078124,-0.93475341796875,-0.3709716796875,-0.01776123046875
1760107203538353400,9.914353515625,-0.9545745849609375,-0.3621063232421875,-0.0186614990234375
1760107203548418300,9.924418212890625,-0.9609527587890625,-0.3572998046875,-0.0246124267578125
1760107203558483500,9.9344833984375,-0.959503173828125,-0.361572265625,-0.032470703125
1760107203568548400,9.94454833984375,-0.955718994140625,-0.3718109130859375,-0.041473388671875
1760107203578613200,9.95461328125,-0.9570465087890625,-0.3832855224609375,-0.052276611328125
1760107203588679400,9.964679443359374,-0.9671783447265625,-0.3870086669921875,-0.0639495849609375
1760107203598744300,9.974744384765625,-0.9844970703125,-0.3815765380859375,-0.0630950927734375
1760107203608809200,9.984809326171876,-1.0141143798828125,-0.36968994140625,-0.045013427734375
1760107203618874400,9.994874267578124,-1.0536956787109375,-0.3539276123046875,-0.0315704345703125
1760107203628939300,10.004939208984375,-1.091888427734375,-0.3517303466796875,-0.0197906494140625
1760107203639004200,10.015004150390626,-1.1254730224609375,-0.362091064453125,-0.0093231201171875
1760107203649070300,10.0250703125,-1.1572723388671875,-0.3796234130859375,-0.0002593994140625
1760107203659135200,10.03513525390625,-1.1708984375,-0.394287109375,-0.0069122314453125
1760107203669200400,10.045200439453126,-1.166351318359375,-0.401763916015625,-0.0233612060546875
1760107203679265300,10.055265380859375,-1.150543212890625,-0.4107818603515625,-0.037445068359375
1760107203689330400,10.065330322265625,-1.1223602294921875,-0.4238739013671875,-0.04339599609375
1760107203699395300,10.075395263671876,-1.079193115234375,-0.4295806884765625,-0.0438690185546875
1760107203709461200,10.085461181640625,-1.0216064453125,-0.425994873046875,-0.049346923828125
1760107203719526400,10.0955263671875,-0.9656982421875,-0.41339111328125,-0.055938720703125
1760107203729591300,10.10559130859375,-0.9357757568359375,-0.396881103515625,-0.0542755126953125
1760107203739656400,10.115656494140625,-0.9360198974609375,-0.3736724853515625,-0.04766845703125
1760107203749721300,10.125721435546875,-0.958648681640625,-0.3417816162109375,-0.042144775390625
1760107203759786200,10.1357861328125,-0.9931488037109375,-0.305023193359375,-0.0361785888671875
1760107203769852400,10.145852294921875,-1.01177978515625,-0.268463134765625,-0.0164794921875
1760107203779917300,10.155917236328126,-1.0016937255859375,-0.2369842529296875,0.015350341796875
1760107203789982200,10.165982177734374,-0.9740753173828125,-0.2127838134765625,0.0357208251953125
1760107203800047400,10.17604736328125,-0.9402618408203125,-0.209747314453125,0.042633056640625
1760107203810112300,10.1861123046875,-0.912567138671875,-0.230010986328125,0.0369110107421875
1760107203820177400,10.196177490234374,-0.8892822265625,-0.25140380859375,0.015350341796875
1760107203830243300,10.206243408203125,-0.8814849853515625,-0.26824951171875,-0.00274658203125
1760107203840308500,10.21630859375,-0.8818206787109375,-0.2786102294921875,-0.01123046875
1760107203850373400,10.226373291015625,-0.881134033203125,-0.277923583984375,-0.0101776123046875
1760107203860438300,10.236438232421875,-0.880645751953125,-0.265960693359375,0.0023040771484375
1760107203870503400,10.24650341796875,-0.880157470703125,-0.258209228515625,0.018280029296875
1760107203880568300,10.256568359375,-0.8752593994140625,-0.2554931640625,0.0228729248046875
1760107203890634200,10.26663427734375,-0.8683319091796875,-0.2563934326171875,0.023590087890625
1760107203900699400,10.276699462890624,-0.866546630859375,-0.2632293701171875,0.022369384765625
1760107203910764300,10.286764404296875,-0.87713623046875,-0.2728729248046875,0.0177154541015625
1760107203920829200,10.2968291015625,-0.89984130859375,-0.2816009521484375,0.004730224609375
1760107203930894300,10.306894287109374,-0.9236907958984375,-0.2877349853515625,-0.0101470947265625
1760107203940959200,10.316959228515625,-0.9483642578125,-0.290374755859375,-0.0282135009765625
1760107203951025200,10.327025146484376,-0.974273681640625,-0.3056182861328125,-0.022247314453125
1760107203961090300,10.33709033203125,-1.0044403076171875,-0.310791015625,0.0107879638671875
1760107203971155500,10.347155517578125,-1.0192718505859375,-0.285400390625,0.0279693603515625
1760107203981220400,10.357220458984376,-1.0098419189453125,-0.258209228515625,0.0322265625
1760107203991285200,10.36728515625,-0.97320556640625,-0.252899169921875,0.0371246337890625
1760107204001350400,10.377350341796875,-0.9274139404296875,-0.27374267578125,0.041656494140625
1760107204011416300,10.387416259765626,-0.88201904296875,-0.2966461181640625,0.0319366455078125
1760107204021481200,10.397481201171875,-0.846771240234375,-0.3096923828125,0.0184783935546875
1760107204031546400,10.40754638671875,-0.8150787353515625,-0.3254547119140625,0.019073486328125
1760107204041611500,10.417611572265624,-0.7907562255859375,-0.327239990234375,0.0288848876953125
1760107204051676200,10.42767626953125,-0.770782470703125,-0.322509765625,0.0315704345703125
1760107204061741300,10.4377412109375,-0.780853271484375,-0.335174560546875,0.0337677001953125
1760107204071807500,10.447807373046874,-0.807342529296875,-0.3426513671875,0.02044677734375
1760107204081872100,10.4578720703125,-0.8444671630859375,-0.34527587890625,0.0016937255859375
1760107204091937300,10.467937255859376,-0.8742523193359375,-0.35174560546875,-0.017791748046875
1760107204102002400,10.47800244140625,-0.878082275390625,-0.350433349609375,-0.0353240966796875
1760107204112067300,10.4880673828125,-0.871826171875,-0.357666015625,-0.038665771484375
1760107204122132200,10.49813232421875,-0.8721466064453125,-0.3760833740234375,-0.030914306640625
1760107204132198400,10.508198486328125,-0.8840789794921875,-0.3905487060546875,-0.040679931640625
1760107204142263300,10.51826318359375,-0.9171905517578125,-0.399627685546875,-0.059417724609375
1760107204152328200,10.528328125,-0.963836669921875,-0.412689208984375,-0.047821044921875
1760107204162393300,10.538393310546875,-1.0078125,-0.4208526611328125,-0.003875732421875
1760107204172458500,10.54845849609375,-1.0313568115234375,-0.3994293212890625,0.04522705078125
1760107204182523100,10.558523193359376,-1.020751953125,-0.3482513427734375,0.074066162109375
1760107204192589300,10.56858935546875,-0.9970245361328125,-0.309661865234375,0.094207763671875
1760107204202654500,10.578654541015625,-0.9611053466796875,-0.316314697265625,0.09771728515625
1760107204212719400,10.58871923828125,-0.942291259765625,-0.3387908935546875,0.08172607421875
1760107204222784300,10.5987841796875,-0.946533203125,-0.3670806884765625,0.0516357421875
1760107204232849400,10.608849365234375,-0.9715118408203125,-0.389923095703125,0.0280609130859375
1760107204242914600,10.61891455078125,-1.004150390625,-0.3956451416015625,0.0104217529296875
1760107204252980200,10.628980224609375,-1.0327911376953125,-0.38970947265625,0.007293701171875
1760107204263045400,10.63904541015625,-1.0532684326171875,-0.37738037109375,0.0145721435546875
1760107204273110300,10.6491103515625,-1.0546875,-0.3673248291015625,0.0200347900390625
1760107204283175200,10.659175048828125,-1.03717041015625,-0.3610992431640625,0.0307159423828125
1760107204293240300,10.669240234375,-1.0139923095703125,-0.353790283203125,0.0494842529296875
1760107204303305500,10.679305419921874,-0.9942474365234375,-0.3424224853515625,0.07183837890625
1760107204313371400,10.689371337890625,-0.9893646240234375,-0.3323822021484375,0.0879058837890625
1760107204323436300,10.699436279296876,-1.01324462890625,-0.3260040283203125,0.1006622314453125
1760107204333501400,10.70950146484375,-1.0500946044921875,-0.3158721923828125,0.0999908447265625
1760107204343566300,10.71956640625,-1.08233642578125,-0.3093719482421875,0.0826568603515625
1760107204353631200,10.72963134765625,-1.09039306640625,-0.3042449951171875,0.0709381103515625
1760107204363696400,10.7396962890625,-1.06634521484375,-0.3034210205078125,0.06427001953125
1760107204373762300,10.74976220703125,-1.0243072509765625,-0.3184051513671875,0.0524749755859375
1760107204383827500,10.759827392578124,-0.9977569580078125,-0.3416595458984375,0.017059326171875
1760107204393892400,10.769892333984375,-0.995513916015625,-0.3508453369140625,-0.01422119140625
1760107204403957200,10.779957275390625,-1.0186614990234375,-0.32769775390625,-0.0228424072265625
1760107204414022400,10.7900224609375,-1.06024169921875,-0.2803802490234375,-0.007293701171875
1760107204424087300,10.80008740234375,-1.102630615234375,-0.23907470703125,0.0414886474609375
1760107204434153200,10.8101533203125,-1.114471435546875,-0.2037811279296875,0.0924530029296875
1760107204444218400,10.82021826171875,-1.094757080078125,-0.1735992431640625,0.124786376953125
1760107204454283300,10.830283203125,-1.0484466552734375,-0.1427001953125,0.13677978515625
1760107204464348400,10.840348388671876,-1.002899169921875,-0.1353302001953125,0.133575439453125
1760107204474413300,10.850413330078124,-0.9748687744140625,-0.149078369140625,0.1220855712890625
1760107204484478200,10.860478271484375,-0.9826202392578125,-0.174896240234375,0.1087646484375
1760107204494544400,10.87054443359375,-1.0070953369140625,-0.201171875,0.0865936279296875
1760107204504609300,10.880609375,-1.023651123046875,-0.2133026123046875,0.0518341064453125
1760107204514674400,10.89067431640625,-1.0161590576171875,-0.2223052978515625,0.019439697265625
1760107204524739300,10.9007392578125,-0.9791259765625,-0.233123779296875,-0.012939453125
1760107204534804200,10.91080419921875,-0.92974853515625,-0.25445556640625,-0.0369415283203125
1760107204544869400,10.920869384765625,-0.883941650390625,-0.2780303955078125,-0.043212890625
1760107204554935300,10.930935302734374,-0.856842041015625,-0.29052734375,-0.0364227294921875
1760107204565000200,10.941000244140625,-0.85418701171875,-0.289764404296875,-0.0204925537109375
1760107204575065300,10.9510654296875,-0.880767822265625,-0.2751617431640625,0.0007476806640625
1760107204585130200,10.961130126953124,-0.92779541015625,-0.250701904296875,0.0132598876953125
1760107204595195400,10.9711953125,-0.9819183349609375,-0.2347564697265625,0.0226593017578125
1760107204605260300,10.98126025390625,-1.03387451171875,-0.2363433837890625,0.01654052734375
1760107204615326500,10.991326416015625,-1.075439453125,-0.249298095703125,-0.0030975341796875
1760107204625391400,11.001391357421875,-1.09515380859375,-0.2612457275390625,-0.027496337890625
1760107204635456300,11.011456298828126,-1.081939697265625,-0.2740478515625,-0.049102783203125
1760107204645521400,11.021521484375,-1.0274810791015625,-0.2777099609375,-0.048828125
1760107204655586300,11.03158642578125,-0.9522552490234375,-0.2748565673828125,-0.0259246826171875
1760107204665651200,11.041651123046876,-0.8824615478515625,-0.275848388671875,0.004974365234375
1760107204675716400,11.05171630859375,-0.8408355712890625,-0.273162841796875,0.0307159423828125
1760107204685782500,11.061782470703125,-0.8369598388671875,-0.2655792236328125,0.0428619384765625
1760107204695847200,11.07184716796875,-0.8627471923828125,-0.263946533203125,0.043701171875
1760107204705912300,11.081912353515625,-0.901123046875,-0.2706451416015625,0.033294677734375
1760107204715977500,11.0919775390625,-0.9344635009765625,-0.2765655517578125,0.0186767578125
1760107204726042400,11.10204248046875,-0.9546356201171875,-0.28173828125,0.0137939453125
1760107204736107300,11.112107177734375,-0.9528350830078125,-0.281951904296875,0.0193634033203125
1760107204746173400,11.12217333984375,-0.9415130615234375,-0.2826385498046875,0.023040771484375
1760107204756238300,11.13223828125,-0.9207916259765625,-0.28839111328125,0.02459716796875
1760107204766303200,11.14230322265625,-0.903076171875,-0.2947845458984375,0.0257110595703125
1760107204776368400,11.152368408203126,-0.89154052734375,-0.2969207763671875,0.021240234375
1760107204786433300,11.162433349609374,-0.8846435546875,-0.294952392578125,0.01922607421875
1760107204796498200,11.172498291015625,-0.8851165771484375,-0.296417236328125,0.02008056640625
1760107204806564400,11.182564453125,-0.89324951171875,-0.300445556640625,0.0248260498046875
1760107204816629500,11.19262939453125,-0.9057769775390625,-0.3007659912109375,0.0324249267578125
1760107204826694100,11.202694091796875,-0.9159088134765625,-0.2988128662109375,0.0316619873046875
1760107204836759300,11.21275927734375,-0.923583984375,-0.2991180419921875,0.0210113525390625
1760107204846824400,11.222824462890625,-0.9209136962890625,-0.3085479736328125,0.007965087890625
1760107204856889300,11.232889404296875,-0.9152679443359375,-0.3217926025390625,-0.0024261474609375
1760107204866955300,11.242955322265624,-0.9120635986328125,-0.3396759033203125,-0.0136260986328125
1760107204877020400,11.2530205078125,-0.9123077392578125,-0.3508453369140625,-0.022796630859375
1760107204887085300,11.263085205078125,-0.9130096435546875,-0.3492889404296875,-0.0256805419921875
1760107204897150200,11.273150146484374,-0.9255523681640625,-0.3456573486328125,-0.029144287109375
1760107204907215400,11.28321533203125,-0.9511871337890625,-0.343475341796875,-0.0208587646484375
1760107204917280500,11.293280517578125,-0.9829864501953125,-0.327728271484375,-0.01312255859375
1760107204927346200,11.30334619140625,-1.014068603515625,-0.3092803955078125,-0.0007781982421875
1760107204937411300,11.313411376953125,-1.048797607421875,-0.2995452880859375,0.0104217529296875
1760107204947476500,11.3234765625,-1.0963592529296875,-0.2890777587890625,0.012542724609375
1760107204957541000,11.333541015625,-1.13848876953125,-0.2861785888671875,0.0150299072265625
1760107204967606300,11.343606201171875,-1.1546478271484375,-0.2855072021484375,0.0318145751953125
1760107204977671400,11.35367138671875,-1.148773193359375,-0.2840576171875,0.04791259765625
1760107204987736300,11.363736328125,-1.128814697265625,-0.289520263671875,0.0579681396484375
1760107204997802200,11.37380224609375,-1.108856201171875,-0.2935943603515625,0.066162109375
1760107205007867400,11.383867431640626,-1.10272216796875,-0.29931640625,0.0642242431640625
1760107205017932300,11.393932373046875,-1.0977630615234375,-0.3108978271484375,0.0287628173828125
1760107205027997200,11.4039970703125,-1.069061279296875,-0.3309326171875,-0.024566650390625
1760107205038062300,11.414062255859376,-1.004547119140625,-0.34515380859375,-0.046630859375
1760107205048127500,11.42412744140625,-0.93121337890625,-0.3356781005859375,-0.0290374755859375
1760107205058193400,11.434193359375,-0.8913726806640625,-0.313201904296875,-0.00469970703125
1760107205068258300,11.44425830078125,-0.8908538818359375,-0.28424072265625,0.003692626953125
1760107205078323500,11.454323486328125,-0.9288787841796875,-0.2561492919921875,-0.00628662109375
1760107205088388400,11.464388427734375,-0.9942779541015625,-0.231414794921875,-0.024749755859375
1760107205098453200,11.474453369140624,-1.06195068359375,-0.2266693115234375,-0.046875
1760107205108518400,11.484518310546875,-1.1187896728515625,-0.2210540771484375,-0.065216064453125
1760107205118584300,11.494584228515626,-1.155029296875,-0.22265625,-0.0710296630859375
1760107205128649200,11.504649169921874,-1.156646728515625,-0.218994140625,-0.0688018798828125
1760107205138714400,11.51471435546875,-1.12066650390625,-0.2120361328125,-0.0517578125
1760107205148779500,11.524779541015626,-1.0511474609375,-0.19976806640625,-0.0128326416015625
1760107205158844200,11.53484423828125,-0.9811859130859375,-0.1887359619140625,0.038177490234375
1760107205168909300,11.544909423828125,-0.91864013671875,-0.176605224609375,0.075408935546875
1760107205178975200,11.554975341796874,-0.874969482421875,-0.171295166015625,0.086334228515625
1760107205189040400,11.565040283203125,-0.8366241455078125,-0.18389892578125,0.064117431640625
1760107205199105300,11.575105224609375,-0.81500244140625,-0.2120361328125,0.02203369140625
1760107205209170400,11.58517041015625,-0.823944091796875,-0.2475738525390625,-0.0189361572265625
1760107205219235300,11.5952353515625,-0.8552398681640625,-0.273712158203125,-0.052886962890625
1760107205229300200,11.60530029296875,-0.89080810546875,-0.2841949462890625,-0.0779571533203125
1760107205239367000,11.615366943359374,-0.9171905517578125,-0.283203125,-0.0852203369140625
1760107205249431800,11.625431884765625,-0.9416656494140625,-0.27349853515625,-0.07147216796875
1760107205259497000,11.6354970703125,-0.968231201171875,-0.260986328125,-0.0441436767578125
1760107205269562000,11.64556201171875,-0.99761962890625,-0.2462921142578125,-0.0203399658203125
1760107205279626800,11.655626708984375,-1.0257568359375,-0.239349365234375,-0.0052490234375
1760107205289692000,11.66569189453125,-1.04974365234375,-0.2366790771484375,0.004852294921875
1760107205299757000,11.675757080078125,-1.0598907470703125,-0.2329559326171875,0.0153045654296875
1760107205309823000,11.685822998046875,-1.0563507080078125,-0.23516845703125,0.0151214599609375
1760107205319888000,11.695887939453126,-1.0358734130859375,-0.2439117431640625,0.0069427490234375
1760107205329953000,11.705953125,-0.9981689453125,-0.26116943359375,-0.0073699951171875
1760107205340018000,11.716017822265625,-0.9571075439453125,-0.2745208740234375,-0.0154266357421875
1760107205350082800,11.726082763671876,-0.921966552734375,-0.277069091796875,-0.015960693359375
1760107205360148000,11.73614794921875,-0.8947906494140625,-0.279205322265625,-0.0101318359375
1760107205370214000,11.7462138671875,-0.87847900390625,-0.2850189208984375,0.002044677734375
1760107205380279000,11.756279052734374,-0.869415283203125,-0.285247802734375,0.0105438232421875
1760107205390344000,11.766343994140625,-0.85748291015625,-0.287628173828125,0.0042572021484375
1760107205400409000,11.7764091796875,-0.8477325439453125,-0.2971038818359375,-0.0087127685546875
1760107205410474000,11.786473876953124,-0.837188720703125,-0.308837890625,-0.020904541015625
1760107205420539000,11.796538818359375,-0.8254852294921875,-0.3193817138671875,-0.02850341796875
1760107205430605000,11.80660498046875,-0.820159912109375,-0.3291015625,-0.0384979248046875
1760107205440670000,11.816669921875,-0.8253631591796875,-0.3404693603515625,-0.0471649169921875
1760107205450734800,11.82673486328125,-0.8331451416015625,-0.348388671875,-0.0457916259765625
1760107205460800000,11.836800048828126,-0.84521484375,-0.345794677734375,-0.0332183837890625
1760107205470865000,11.846864990234375,-0.8603515625,-0.3340911865234375,-0.0171051025390625
1760107205480929800,11.8569296875,-0.8760223388671875,-0.326080322265625,-0.0028076171875
1760107205490995000,11.866994873046876,-0.88397216796875,-0.3212432861328125,0.0089874267578125
1760107205501060900,11.877060791015625,-0.8869171142578125,-0.3254547119140625,0.0134124755859375
1760107205511126000,11.8871259765625,-0.8935546875,-0.3370208740234375,0.0129852294921875
1760107205521191000,11.89719091796875,-0.9016876220703125,-0.3435211181640625,0.0047607421875
1760107205531256000,11.907256103515625,-0.91436767578125,-0.3484954833984375,-0.00408935546875
1760107205541321000,11.917321044921875,-0.9332122802734375,-0.3535003662109375,-0.01812744140625
1760107205551385900,11.9273857421875,-0.955108642578125,-0.3607330322265625,-0.0384674072265625
1760107205561452000,11.9374521484375,-0.9742279052734375,-0.3675079345703125,-0.0515594482421875
1760107205571517000,11.947516845703126,-0.9838714599609375,-0.361846923828125,-0.0487060546875
1760107205581582000,11.95758203125,-0.9916839599609375,-0.3498687744140625,-0.0333251953125
1760107205591647000,11.96764697265625,-1.0057525634765625,-0.3358917236328125,-0.01708984375
1760107205601711900,11.9777119140625,-1.0273895263671875,-0.3223876953125,-0.005615234375
1760107205611777000,11.987777099609374,-1.0408782958984375,-0.31817626953125,-0.0021514892578125
1760107205621843000,11.997843017578125,-1.052398681640625,-0.3178558349609375,0.003997802734375
1760107205631907800,12.007907958984376,-1.06866455078125,-0.3247528076171875,0.001373291015625
1760107205641973000,12.017972900390625,-1.0861358642578125,-0.3306884765625,-0.005401611328125
1760107205652038000,12.028037841796875,-1.102264404296875,-0.33966064453125,-0.01068115234375
1760107205662103000,12.03810302734375,-1.0998382568359375,-0.35198974609375,-0.013092041015625
1760107205672168000,12.04816796875,-1.0735626220703125,-0.365753173828125,-0.0087127685546875
1760107205682232800,12.05823291015625,-1.0551605224609375,-0.374725341796875,0.01885986328125
1760107205692299000,12.068299072265624,-1.0327911376953125,-0.3641815185546875,0.022216796875
1760107205702364000,12.078364013671875,-1.0175323486328125,-0.3457183837890625,0.0097808837890625
1760107205712429000,12.088428955078125,-1.0224151611328125,-0.3257904052734375,-0.00762939453125
1760107205722494000,12.098493896484374,-1.0341644287109375,-0.3037872314453125,-0.02392578125
1760107205732558800,12.108558837890625,-1.050445556640625,-0.279937744140625,-0.022552490234375
1760107205742624000,12.1186240234375,-1.06787109375,-0.2611846923828125,-0.0160980224609375
1760107205752690000,12.12868994140625,-1.089691162109375,-0.2423553466796875,-0.012298583984375
1760107205762754800,12.1387548828125,-1.1026153564453125,-0.2202911376953125,-0.0153350830078125
1760107205772820000,12.148820068359376,-1.1026763916015625,-0.2025146484375,-0.015869140625
1760107205782884900,12.158884765625,-1.0929412841796875,-0.1924285888671875,-0.017822265625
1760107205792950000,12.168949951171875,-1.06878662109375,-0.1973419189453125,-0.0107421875
1760107205803015000,12.179014892578126,-1.0369720458984375,-0.207305908203125,0.0048980712890625
1760107205813081000,12.1890810546875,-0.9927978515625,-0.2113800048828125,0.01019287109375
1760107205823146000,12.19914599609375,-0.9469146728515625,-0.2139892578125,0.0076141357421875
1760107205833211000,12.2092109375,-0.9062652587890625,-0.2181854248046875,0.006591796875
1760107205843276000,12.219276123046875,-0.881500244140625,-0.218902587890625,0.0124969482421875
1760107205853341000,12.2293408203125,-0.8694000244140625,-0.2154541015625,0.01824951171875
1760107205863405800,12.23940576171875,-0.8732757568359375,-0.2098541259765625,0.0233917236328125
1760107205873471000,12.249470947265625,-0.8839263916015625,-0.2039794921875,0.0297698974609375
1760107205883537200,12.259537109375,-0.898651123046875,-0.2001800537109375,0.0348358154296875
1760107205893601800,12.269601806640624,-0.9068450927734375,-0.1978759765625,0.0316619873046875
1760107205903667000,12.2796669921875,-0.913482666015625,-0.20452880859375,0.02154541015625
1760107205913732000,12.289732177734376,-0.9243316650390625,-0.2118682861328125,-0.0009765625
1760107205923797000,12.299796875,-0.94140625,-0.217559814453125,-0.0246429443359375
1760107205933862000,12.30986181640625,-0.960296630859375,-0.218109130859375,-0.0448150634765625
1760107205943928000,12.319927978515626,-0.9755096435546875,-0.2197723388671875,-0.049835205078125
1760107205953993000,12.329992919921875,-0.9824676513671875,-0.22021484375,-0.0350799560546875
1760107205964057900,12.340057861328125,-0.9771728515625,-0.22021484375,-0.0143585205078125
1760107205974123000,12.350123046875,-0.962188720703125,-0.2227935791015625,0.000030517578125
1760107205984188000,12.36018798828125,-0.9318695068359375,-0.2249298095703125,0.0056304931640625
1760107205994252800,12.370252685546875,-0.8961181640625,-0.241058349609375,-0.0053863525390625
1760107206004319000,12.380319091796874,-0.8652191162109375,-0.262939453125,-0.0255126953125
1760107206014384000,12.390384033203125,-0.853424072265625,-0.2848052978515625,-0.0365753173828125
1760107206024448800,12.40044873046875,-0.858917236328125,-0.2920074462890625,-0.04095458984375
1760107206034514000,12.410513916015624,-0.872528076171875,-0.2880096435546875,-0.04229736328125
1760107206044579000,12.4205791015625,-0.8978118896484375,-0.280426025390625,-0.035888671875
1760107206054644000,12.43064404296875,-0.9300079345703125,-0.2727813720703125,-0.0292510986328125
1760107206064708900,12.440708984375,-0.958343505859375,-0.272430419921875,-0.024932861328125
1760107206074775000,12.450775146484375,-0.97613525390625,-0.2717742919921875,-0.03326416015625
1760107206084840000,12.46083984375,-0.9755401611328125,-0.2754364013671875,-0.042816162109375
1760107206094904800,12.47090478515625,-0.9578857421875,-0.286346435546875,-0.04901123046875
1760107206104970000,12.480969970703125,-0.934478759765625,-0.292572021484375,-0.0522613525390625
1760107206115035100,12.49103515625,-0.9141998291015625,-0.2992401123046875,-0.056427001953125
1760107206125099800,12.501099853515624,-0.8980712890625,-0.3061370849609375,-0.0612945556640625
1760107206135166000,12.511166015625,-0.890960693359375,-0.3097991943359375,-0.0646209716796875
1760107206145231000,12.521231201171876,-0.88916015625,-0.3087921142578125,-0.07110595703125
1760107206155295700,12.531295654296875,-0.894744873046875,-0.310577392578125,-0.070892333984375
1760107206165361000,12.54136083984375,-0.908447265625,-0.30889892578125,-0.059478759765625
1760107206175426000,12.551426025390626,-0.926361083984375,-0.3012237548828125,-0.053131103515625
1760107206185491000,12.561490966796875,-0.946502685546875,-0.29815673828125,-0.0531768798828125
1760107206195555800,12.571555908203125,-0.9608917236328125,-0.301361083984375,-0.0632171630859375
1760107206205622000,12.5816220703125,-0.967987060546875,-0.310546875,-0.0805206298828125
1760107206215687000,12.59168701171875,-0.970794677734375,-0.32196044921875,-0.0983123779296875
1760107206225751800,12.601751708984375,-0.9806976318359375,-0.329620361328125,-0.1108856201171875
1760107206235817200,12.611817138671874,-1.013336181640625,-0.3329315185546875,-0.116912841796875
1760107206245882000,12.621882080078125,-1.0596160888671875,-0.327178955078125,-0.117828369140625
1760107206255947000,12.631947021484375,-1.1002960205078125,-0.312896728515625,-0.1091156005859375
1760107206266013200,12.64201318359375,-1.1239471435546875,-0.298431396484375,-0.096405029296875
1760107206276078000,12.652078125,-1.129730224609375,-0.291229248046875,-0.0750579833984375
1760107206286143000,12.66214306640625,-1.1261444091796875,-0.2955780029296875,-0.055511474609375
1760107206296208100,12.6722080078125,-1.123992919921875,-0.3017425537109375,-0.038787841796875
1760107206306273000,12.68227294921875,-1.121429443359375,-0.30242919921875,-0.03106689453125
1760107206316338200,12.692338134765626,-1.116668701171875,-0.299591064453125,-0.027618408203125
1760107206326403000,12.702403076171874,-1.1181793212890625,-0.2983551025390625,-0.0303192138671875
1760107206336469200,12.71246923828125,-1.1151123046875,-0.2983551025390625,-0.031768798828125
1760107206346534000,12.722533935546876,-1.101593017578125,-0.2924041748046875,-0.033538818359375
1760107206356599000,12.73259912109375,-1.07794189453125,-0.2763519287109375,-0.037506103515625
1760107206366664200,12.742664306640625,-1.0628662109375,-0.2601776123046875,-0.0518341064453125
1760107206376729000,12.75272900390625,-1.037933349609375,-0.2610931396484375,-0.0945281982421875
1760107206386794000,12.7627939453125,-1.0120086669921875,-0.276397705078125,-0.1331787109375
1760107206396860200,12.772860107421875,-0.9890594482421875,-0.2941131591796875,-0.1582794189453125
1760107206406925000,12.782925048828124,-0.965850830078125,-0.3022613525390625,-0.1717987060546875
1760107206416990000,12.792989990234375,-0.95904541015625,-0.297332763671875,-0.1636962890625
1760107206427055000,12.80305517578125,-0.9755096435546875,-0.28265380859375,-0.149871826171875
1760107206437120000,12.8131201171875,-1.0115509033203125,-0.2550506591796875,-0.1059417724609375
1760107206447185200,12.82318505859375,-1.0519256591796875,-0.214111328125,-0.059844970703125
1760107206457250000,12.83325,-1.071624755859375,-0.1813201904296875,-0.036712646484375
1760107206467316200,12.843316162109375,-1.061676025390625,-0.16448974609375,-0.0180206298828125
1760107206477380900,12.853380859375,-1.03240966796875,-0.156768798828125,0.006103515625
1760107206487446000,12.863446044921876,-0.994140625,-0.154388427734375,0.0213470458984375
1760107206497511200,12.87351123046875,-0.9512176513671875,-0.1526031494140625,0.021484375
1760107206507576000,12.883576171875,-0.911163330078125,-0.1535186767578125,0.0115966796875
1760107206517641000,12.893640869140626,-0.8834075927734375,-0.16375732421875,0.00323486328125
1760107206527706000,12.9037060546875,-0.868621826171875,-0.182159423828125,-0.0032958984375
1760107206537772300,12.913772216796875,-0.860137939453125,-0.1998138427734375,-0.0072479248046875
1760107206547837000,12.9238369140625,-0.8526611328125,-0.2132720947265625,-0.0173492431640625
1760107206557902000,12.933902099609375,-0.85577392578125,-0.2261962890625,-0.028228759765625
