time,seconds_elapsed,z,y,x
1760107193698367000,0.074366943359375,-0.4955447985947132,-0.22119959580078719,-0.018314860902167857
1760107193708432000,0.084431884765625,-0.32138240990936756,-0.19120441664010285,-0.03170833975411951
1760107193718497000,0.0944970703125,-0.1672457411646843,-0.18063728378787636,0.0008228058912791311
1760107193728563000,0.10456298828125,-0.07439093185663223,-0.19541355876773595,-0.012484529047179966
1760107193738627800,0.1146279296875,0.07276011578440665,-0.21835195128470658,0.014764904202474281
1760107193748693000,0.12469287109375,0.2017746182322502,-0.23250205719023942,0.16809600131846963
1760107193758758100,0.134758056640625,0.3128291010975838,-0.2082262785896659,0.342036490881443
1760107193768822800,0.14482275390625,0.36127076818346976,-0.13425649475455284,0.4293324970185756
1760107193778889000,0.154888916015625,0.6382166549950837,0.038982349345088,0.27705924752559513
1760107193788954000,0.1649541015625,1.2849895414113999,0.04432458715587854,-0.1777994665460661
1760107193799018800,0.175018798828125,1.776502308011055,-0.22452128756940362,-0.35312735534682865
1760107193809084000,0.185083984375,1.829061931809783,-0.5663523190066218,-0.09165900538591668
1760107193819150000,0.195150146484375,1.7450398327767849,-0.676426558662951,0.12471670478922314
1760107193829215000,0.205215087890625,1.4740899715095757,-0.5945318270474672,0.12843667516042478
1760107193839279900,0.21527978515625,1.0109545736104248,-0.4682788982674479,0.13947717027859763
1760107193849345000,0.225344970703125,0.43768005412518973,-0.4092778432443738,0.09269805697691626
1760107193859410000,0.235409912109375,-0.02932370963990688,-0.40217853263318537,-0.10407375713251531
1760107193869475800,0.245475830078125,-0.3482803537070751,-0.36803836262226103,-0.3008446122607216
1760107193879541000,0.255541015625,-0.6375345179498195,-0.31452479909956454,-0.3992859529968351
1760107193889606000,0.26560595703125,-0.7048767003387212,-0.3063222034215927,-0.38160920733511444
1760107193899670800,0.2756708984375,-0.5793021092116832,-0.34642011279314755,-0.3343158700341359
1760107193909737000,0.285737060546875,-0.28651977084279057,-0.3515817333400249,-0.2685912423770875
1760107193919801900,0.2958017578125,0.024902970588207243,-0.3356479588881135,-0.18070424807686358
1760107193929867000,0.305866943359375,0.2716664851039648,-0.342495340564847,-0.1190347227632068
1760107193939932000,0.315931884765625,0.34576164888441563,-0.37131519233584404,0.04113905245494097
1760107193949997000,0.3259970703125,0.2675748318761587,-0.33927491721361874,0.15321432973537594
1760107193960063000,0.33606298828125,0.2156342167586088,-0.2391150455892086,0.1202700367118232
1760107193970128100,0.346128173828125,0.19141689034700393,-0.18180939630717038,0.06323935017995536
1760107193980193000,0.356193115234375,0.19837036274671555,-0.255610253316164,-0.004340056764613837
1760107193990258000,0.3662578125,0.30067806005477904,-0.4002779597088694,-0.16394478165684268
1760107194000324000,0.376323974609375,0.39785657778084277,-0.5617673293039203,-0.3210485017798841
1760107194010388700,0.386388671875,0.4570832582533359,-0.7159159807473421,-0.34320604611746963
1760107194020454000,0.396453857421875,0.4805114801138639,-0.7292918874099851,-0.23512931868759915
1760107194030519000,0.40651904296875,0.4197346475899219,-0.6449196597650647,-0.08954679900491609
1760107194040584000,0.416583984375,0.31826573919355866,-0.5611354611411691,0.05492509255474433
1760107194050649900,0.42664990234375,0.17262041994035243,-0.4866352236911654,0.10805053354268893
1760107194060715000,0.436715087890625,0.018878887993097303,-0.44685091031342744,0.08809292866848409
1760107194070780200,0.4467802734375,-0.1056365494698286,-0.4666841764219105,-0.027355112980678675
1760107194080844800,0.4568447265625,-0.22848025432825086,-0.6114774088904261,-0.17451286435713992
1760107194090911000,0.466910888671875,-0.2758487392246723,-0.7217996319584548,-0.2626444445355795
1760107194100975900,0.476975830078125,-0.25540683969855305,-0.774554778329283,-0.31348522691875697
1760107194111041000,0.487041015625,-0.21960955013036726,-0.8034246067218482,-0.2369105760811828
1760107194121106000,0.49710595703125,-0.19073650686740873,-0.8443250646479428,-0.18962036231905222
1760107194131171000,0.507171142578125,-0.18314707465171812,-0.8922069058939814,-0.2077494000592269
1760107194141237000,0.517237060546875,-0.21043840168118474,-0.9816555600203574,-0.25269900551196184
1760107194151302000,0.527302001953125,-0.2859089454680681,-1.1087184900090097,-0.2596141551952809
1760107194161367000,0.537366943359375,-0.2723462840616703,-1.226261311980337,-0.26361579205207525
1760107194171432000,0.547431884765625,-0.16279051532149313,-1.314500590316951,-0.2577151166409254
1760107194181498000,0.557498046875,0.00135024556517601,-1.32780021687299,-0.21027842534650115
1760107194191563000,0.56756298828125,0.21586802551448345,-1.303704178753495,-0.1830997649112716
1760107194201628000,0.5776279296875,0.44612405734360217,-1.3329795192070304,-0.15585392099134623
1760107194211693000,0.587693115234375,0.7119131748467683,-1.351348411851376,-0.12165628517214208
1760107194221758000,0.597758056640625,0.8223089015424251,-1.325843822108209,0.0032526085877791046
1760107194231823600,0.60782373046875,0.7979477827459573,-1.2159404089741408,0.1648249802911654
1760107194241888800,0.617888671875,0.662944269016385,-1.1028051743119955,0.16979253957066684
1760107194251953700,0.62795361328125,0.46695641749203204,-1.0831525254674255,0.07232683893367647
1760107194262018600,0.6380185546875,0.299766205906868,-1.1016763164125383,-0.060420767361577594
1760107194272083700,0.648083740234375,0.20717793858051298,-1.0824230421490966,-0.15034489351259545
1760107194282150000,0.65814990234375,0.16004676957130431,-1.0594634607136248,-0.15081492217713965
1760107194292214500,0.668214599609375,0.12861644304096698,-1.0376910432361066,-0.07774317402713932
1760107194302279700,0.67827978515625,0.11428747343719005,-1.0176518792919813,0.014583346223644912
1760107194312344800,0.6883447265625,0.14564064307808874,-0.9732400522440672,0.1042708871398121
1760107194322410800,0.69841064453125,0.2514016957104206,-0.9246636528626084,0.1916357024631463
1760107194332475600,0.7084755859375,0.35472295397520065,-0.9432349362112581,0.2533012274551205
1760107194342540800,0.718540771484375,0.4198755173653364,-0.9956870079822838,0.2615121525700204
1760107194352605700,0.728605712890625,0.4041600618392229,-1.059977109324187,0.22565054732766002
1760107194362670600,0.738670654296875,0.29315292524695397,-1.1614080237977207,0.10243123235618695
1760107194372736800,0.74873681640625,0.20242226848602293,-1.2603512131087482,-0.06615319180004298
1760107194382801700,0.7588017578125,0.15927753876447676,-1.3244798402786253,-0.1386014103573747
1760107194392866600,0.768866455078125,0.11223404803872108,-1.3718445257827638,-0.09219218981401063
1760107194402931700,0.778931640625,0.10858253979384898,-1.3672526679478585,-0.023366262540221214
1760107194412997600,0.78899755859375,0.16336042416393756,-1.317139268257469,-0.017286285039409995
1760107194423062800,0.799062744140625,0.18767653477489948,-1.3018066745691002,-0.04507433694410137
1760107194433127700,0.809127685546875,0.2030477069079876,-1.3467213365726172,-0.13657381351990625
1760107194443192800,0.81919287109375,0.21420739882588385,-1.4700205301135778,-0.28574272205568846
1760107194453257700,0.8292578125,0.12036942369937896,-1.5853136734619735,-0.2975949262823909
1760107194463323600,0.83932373046875,-0.004849778118729591,-1.5899840033605694,-0.26207155828475953
1760107194473388500,0.849388427734375,-0.09186287566125392,-1.5164187086731196,-0.277186746362783
1760107194483453700,0.85945361328125,-0.19697627803981302,-1.4453914080306887,-0.2633183800080791
1760107194493518600,0.8695185546875,-0.3344815454572439,-1.415933696747571,-0.2285505796181038
1760107194503584500,0.87958447265625,-0.49730947017967697,-1.3875406920865176,-0.26625852511320264
1760107194513649700,0.889649658203125,-0.578394346717,-1.328492290790379,-0.33296018110886216
1760107194523714800,0.89971484375,-0.5254471849054098,-1.3146560731396078,-0.2981760506385937
1760107194533779700,0.90977978515625,-0.45459553309082984,-1.3407804022163152,-0.2418348807408474
1760107194543844600,0.9198447265625,-0.4578595033228397,-1.2877967077866195,-0.19925394064821303
1760107194553910800,0.929910888671875,-0.46992578869163987,-1.119293513906747,-0.20283136074356733
1760107194563976000,0.939975830078125,-0.5797504375010728,-0.9249781256392597,-0.1615614849831909
1760107194574040600,0.95004052734375,-0.9057873952180147,-0.7808974253542721,-0.047634844215027984
1760107194584105700,0.960105712890625,-1.2519453499436377,-0.6260314194217323,-0.031742059360630806
1760107194594171000,0.9701708984375,-1.4919979686439035,-0.4248443918190896,-0.01932602897239849
1760107194604236500,0.980236572265625,-1.5391063412994146,-0.21200039030089973,-0.009551051144860684
1760107194614301700,0.9903017578125,-1.3873819943934678,-0.04317103320658207,0.014540292533207684
1760107194624366800,1.000366943359375,-1.0378139389634131,0.06455094423517585,0.09807546656578779
1760107194634431500,1.010431396484375,-0.5518412708342075,0.0766644297465682,0.23777245360752566
1760107194644497700,1.02049755859375,-0.05523965666294098,0.07774608750343322,0.3450743242073804
1760107194654562800,1.030562744140625,0.2940139259904623,0.07166618306785821,0.41741599538400764
1760107194664627700,1.040627685546875,0.389607220351696,0.11316928306221961,0.49416879753377285
1760107194674692600,1.050692626953125,0.2658662743926048,0.2763867916241288,0.5432098552849144
1760107194684757800,1.0607578125,-0.09298165055811404,0.47402884009629487,0.5507791214954108
1760107194694823700,1.07082373046875,-0.5428881490498781,0.6337170054882765,0.4807037147503346
1760107194704888800,1.080888916015625,-0.9315899449944496,0.7935933869287372,0.3752838402384892
1760107194714953700,1.09095361328125,-1.1850199316620826,0.890972980184853,0.23562020747708157
1760107194725018600,1.1010185546875,-1.21208621776402,0.8966691459998488,0.07320764948935247
1760107194735084800,1.111084716796875,-1.0335440065592527,0.8152528455510735,-0.03651005008057691
1760107194745149700,1.121149658203125,-0.7330541625529527,0.6785562641680241,-0.04663004195350222
1760107194755214600,1.131214599609375,-0.3335176688611507,0.554203323790431,0.04040423537436873
1760107194765279700,1.14127978515625,0.023783026647567748,0.4362257636636495,0.16745741115398705
1760107194775344600,1.1513447265625,0.24845687443017958,0.34768121877014635,0.3419433692378923
1760107194785410600,1.16141064453125,0.3855722657471895,0.3034334962427616,0.43907472335398195
1760107194795475700,1.171475830078125,0.4614110583245754,0.34138065732121464,0.4548573258321732
1760107194805540900,1.181540771484375,0.45217561246752735,0.39283874961882825,0.511255504880473
1760107194815605800,1.191605712890625,0.3254705560058355,0.4150643176913261,0.5735836950322613
1760107194825670700,1.201670654296875,0.15029811349511146,0.4207680822908878,0.5095704378703608
1760107194835736800,1.21173681640625,0.02698445303738117,0.3984907840311527,0.3342806160576641
1760107194845801500,1.221801513671875,0.028587212058901783,0.3074664050206542,0.1587835447024554
1760107194855866600,1.23186669921875,0.1816495295703411,0.19555472080409525,0.07129660083679482
1760107194865931800,1.241931884765625,0.41758594512343405,0.1098085744574666,0.03197296377336606
1760107194875997700,1.251997802734375,0.6087953301995992,0.06405220093280077,0.10480792575911618
1760107194886062600,1.2620625,0.6304647256940603,0.07616232544332742,0.2333614870311692
1760107194896127700,1.272127685546875,0.5000590611487626,0.1305871585920453,0.2925022610521875
1760107194906193000,1.28219287109375,0.30259412280917164,0.19994009628146886,0.3625780513897538
1760107194916257500,1.292257568359375,0.15274959830045698,0.2409878537237644,0.44968463590200985
1760107194926323700,1.30232373046875,0.08918342731893063,0.2213590241461992,0.5086555149825289
1760107194936388600,1.312388671875,0.1490770472675562,0.19599018961191175,0.45982167024128134
1760107194946453800,1.322453857421875,0.28221242903769017,0.1387435770407319,0.37288825033884493
1760107194956518700,1.3325185546875,0.4550900386095047,0.012677987526357173,0.3661365110563114
1760107194966584600,1.34258447265625,0.6522475184351205,-0.10098521653264761,0.37655155861936507
1760107194976649700,1.352649658203125,0.794130854806304,-0.1804018675968051,0.34592144255600865
1760107194986714600,1.362714599609375,0.843864899790287,-0.22977000187784433,0.36006647042762485
1760107194996779800,1.37277978515625,0.8528390643626451,-0.24105215113162992,0.37571350036002693
1760107195006844700,1.3828447265625,0.8216799559891224,-0.25968407862633464,0.3735599755879491
1760107195016910800,1.392910888671875,0.7579799294948577,-0.3081725074633956,0.3627397447574883
1760107195026975700,1.402975830078125,0.6921756241977215,-0.35872166822254653,0.3301253230091184
1760107195037040600,1.41304052734375,0.6520446893393993,-0.4092953789010644,0.2781819131462835
1760107195047105800,1.423105712890625,0.643251726552844,-0.46596682193279265,0.22803709540432318
1760107195057170700,1.433170654296875,0.6044143386363983,-0.5514978642240166,0.274408623418957
1760107195067236600,1.443236572265625,0.48400107579529283,-0.5931006252005696,0.34378377294018864
1760107195077301800,1.4533017578125,0.3707148883551359,-0.5850520510405302,0.338121618992649
1760107195087367000,1.463366943359375,0.34150282239615914,-0.595470276941359,0.3366222107477486
1760107195097431600,1.473431640625,0.39023148972988125,-0.6749409962803125,0.27843616190198806
1760107195107497700,1.483497802734375,0.5039619138062,-0.7782745295047759,0.1632574021808803
1760107195117563000,1.49356298828125,0.5765560253739357,-0.8916296905279159,0.08797523883925751
1760107195127627500,1.50362744140625,0.5478069007515907,-0.9958958284273743,0.029595400437468194
1760107195137692700,1.513692626953125,0.4580535645902157,-1.0269430008590221,0.039492573022702704
1760107195147757800,1.5237578125,0.29049861134588717,-1.006096319924295,0.09354972363649867
1760107195157823700,1.53382373046875,0.11935469369888305,-0.9307090705066918,0.13957821036712265
1760107195167888600,1.543888671875,-0.06413023460507393,-0.8329442773252725,0.11120560917328111
1760107195177953800,1.553953857421875,-0.24823943228721618,-0.7507616686791181,0.026170047364977654
1760107195188018700,1.564018798828125,-0.4495996244996786,-0.7539946592509746,-0.009421650328242685
1760107195198083600,1.57408349609375,-0.5784101288080216,-0.7661901239573955,0.030112759392056612
1760107195208149800,1.584149658203125,-0.601156798145175,-0.7450351077258587,-0.025072774197161196
1760107195218214700,1.594214599609375,-0.5582862091898918,-0.7124678861200809,-0.15804511089269072
1760107195228279800,1.60427978515625,-0.45416181784868237,-0.6957689725145697,-0.19290943045970052
1760107195238345000,1.614344970703125,-0.3970481840074062,-0.6680258100643753,-0.1101170924173668
1760107195248411000,1.624410888671875,-0.43136721771657466,-0.57977440289855,0.02952523726110812
1760107195258475800,1.634475830078125,-0.5884112983405589,-0.4994537887319922,0.19322214967068282
1760107195268541000,1.644541015625,-0.7601853305846452,-0.4221460926458239,0.3674655311703682
1760107195278605800,1.654605712890625,-0.942969417142868,-0.37448622358739375,0.4552729939609766
1760107195288670700,1.664670654296875,-1.1188409478336572,-0.29718583402484655,0.3443454254109412
1760107195298737000,1.67473681640625,-1.327891694548726,-0.22706775718182323,0.16261243707453832
1760107195308801800,1.6848017578125,-1.4443307930618523,-0.20590543442666528,-0.04334469100674614
1760107195318866700,1.69486669921875,-1.4081962343633174,-0.2243631743982434,-0.22680158052630722
1760107195328931800,1.704931884765625,-1.223990006047487,-0.20153554877936838,-0.30833029184099287
1760107195338997000,1.7149970703125,-0.8876900129914284,-0.07499240488111972,-0.32490897660031914
1760107195349063000,1.72506298828125,-0.4531313057571649,0.12161767019480466,-0.24832429755907504
1760107195359127800,1.7351279296875,-0.12307108387351036,0.2765826064571738,-0.049210952691640705
1760107195369193000,1.74519287109375,-0.020718378379940984,0.35340281128734347,0.16816373279243707
1760107195379257900,1.7552578125,-0.10784838030040264,0.4339283003762364,0.2706645597861148
1760107195389323800,1.76532373046875,-0.40090602847933765,0.5584788091525436,0.2639582488141954
1760107195399388700,1.775388671875,-0.8353332182884216,0.6827779735162853,0.2862505619799718
1760107195409453800,1.785453857421875,-1.333574416360259,0.7871244831755757,0.3678855832133442
1760107195419519000,1.79551904296875,-1.8234990369856356,0.832894885225594,0.36688020556308326
1760107195429584000,1.805583984375,-2.1104367409795524,0.7703796846017241,0.2532328749266453
1760107195439649800,1.81564990234375,-2.0037538973271847,0.6473904337927698,0.03535789350392297
1760107195449715000,1.82571484375,-1.445206406852603,0.5366504237040877,-0.22206593030653893
1760107195459779800,1.83577978515625,-0.7571651059806347,0.4008595589891076,-0.3788819377956912
1760107195469844700,1.8458447265625,-0.09001520196795464,0.3192243550926447,-0.3600777224740013
1760107195479910000,1.855909912109375,0.4721563242226839,0.33112580528855323,-0.23163422484714535
1760107195489975800,1.865975830078125,0.7727139727681874,0.3709653559848666,-0.12174065725365653
1760107195500040700,1.876040771484375,0.87026775354743,0.45087300543636083,-0.08788568825912661
1760107195510105900,1.88610595703125,0.8832067300975323,0.5512833446905017,-0.13544982359181157
1760107195520171000,1.8961708984375,0.8202315107464789,0.5982841653183102,-0.2538948277004063
1760107195530236700,1.906236572265625,0.6812520791232586,0.5810837319314479,-0.4066697065725922
1760107195540301800,1.9163017578125,0.5181938527762889,0.522828234578669,-0.5213189990594983
1760107195550367000,1.926366943359375,0.3209422649264335,0.4633262442961335,-0.6378215181976556
1760107195560431600,1.936431640625,0.17994973991513252,0.4658464104235172,-0.6328184492133557
1760107195570496800,1.946496826171875,0.13766776450276375,0.5434326311901212,-0.5320711330898106
1760107195580563000,1.95656298828125,0.13474866218566894,0.6132607851758599,-0.32470618403721596
1760107195590627800,1.9666279296875,0.11445873835086821,0.6819432762578129,-0.17254386583911255
1760107195600692700,1.976692626953125,0.03844575825035572,0.6962479882031679,-0.0584906258494826
1760107195610758000,1.9867578125,-0.1464741712927818,0.7043696275994181,0.0421398406950524
1760107195620822800,1.99682275390625,-0.31004443881511684,0.7113032262548804,0.11656045987047255
1760107195630889000,2.006888916015625,-0.35387364366948604,0.6708759387984872,0.20653754005143418
1760107195640953900,2.016953857421875,-0.18412673333883284,0.5864613333165645,0.3021868206499144
1760107195651018800,2.027018798828125,0.1371335114955902,0.49589638851135964,0.3906886223802343
1760107195661084000,2.037083984375,0.5890747306853532,0.3775736682087183,0.3817087221868336
1760107195671149800,2.04714990234375,1.0084557425320149,0.1713748037934303,0.24784652397949247
1760107195681214700,2.057214599609375,1.2045920626163482,-0.06596855594813823,0.1720348751373589
1760107195691280000,2.06727978515625,1.2390385220974682,-0.2352852581679821,0.04235617315974086
1760107195701344800,2.0773447265625,1.1552607532143593,-0.261298528085649,-0.09559631743538193
1760107195711410000,2.087409912109375,0.8934189120322465,-0.2860048070579767,-0.12574367321678437
1760107195721475800,2.097475830078125,0.5910936692923308,-0.2925698646619916,-0.18790106424577532
1760107195731541000,2.107541015625,0.35774434762299057,-0.26194822416603564,-0.3096432010704651
1760107195741605600,2.117605712890625,0.24122107795774936,-0.26449001760333773,-0.2748468321731314
1760107195751670800,2.1276708984375,0.20584639771580696,-0.3232014420300722,-0.04323923960458487
1760107195761736000,2.13773583984375,0.29086569109261035,-0.2524932903394103,0.10822603624006732
1760107195771801900,2.1478017578125,0.45045478002429007,-0.1714177661523223,0.18284622854162005
1760107195781866800,2.15786669921875,0.6267991889238357,-0.22789339435100553,0.2538569799080491
1760107195791932000,2.167931884765625,0.7862830639153718,-0.3312672595858574,0.2779416746496223
1760107195801997000,2.1779970703125,0.8924474366515874,-0.42688481160551306,0.2321454988375306
1760107195812061700,2.188061767578125,0.8172434348464012,-0.5410314152672887,0.04852063233992084
1760107195822127900,2.1981279296875,0.7734726821810006,-0.6454638496443629,-0.2449903673633933
1760107195832193000,2.208193115234375,0.761429777687788,-0.7996867353677749,-0.4012647787891328
1760107195842257700,2.218257568359375,0.7681698995977639,-0.8802493415966629,-0.48859245870616286
1760107195852322800,2.22832275390625,0.6448954021066426,-0.7739236408188939,-0.5216970751242712
1760107195862388700,2.238388671875,0.324565131598711,-0.6207470492780208,-0.3519750800391659
1760107195872454000,2.248453857421875,-0.10937456695437431,-0.45663054604977366,0.15751681270226836
1760107195882518800,2.258518798828125,-0.3757791860073805,-0.33009120154380794,0.6388442853741347
1760107195892584000,2.268583984375,-0.3131704618811607,-0.2857856113493442,0.766361169675365
1760107195902648800,2.27864892578125,0.008581950384378433,-0.3261421716570854,0.6816837485387921
1760107195912714800,2.28871484375,0.3669055592000484,-0.5808481696099043,0.49476935724280774
1760107195922780000,2.29877978515625,0.5632938082188368,-0.9107356652751565,0.31477205185890195
1760107195932844800,2.3088447265625,0.41286300825476646,-1.159582123544812,0.22506233564354478
1760107195942909700,2.31890966796875,-0.003736848440766334,-1.2043249361127615,0.08058540258258581
1760107195952974800,2.328974853515625,-0.5486521194040775,-1.0570827030569314,-0.0724194856531918
1760107195963040800,2.339040771484375,-0.9412690429657697,-0.8010840349450707,-0.17052973127141594
1760107195973106000,2.34910595703125,-1.095039801007509,-0.6182306825429201,-0.19107472584582863
1760107195983170800,2.3591708984375,-1.0079974773705005,-0.5223480498462915,-0.20211064525358377
1760107195993235700,2.369235595703125,-0.8460703008800744,-0.4754088962778449,-0.2061006282052025
1760107196003300900,2.37930078125,-0.8256751631051301,-0.4778858077853918,-0.10662033634278922
1760107196013367000,2.389366943359375,-0.8668085530042647,-0.48579234312623737,0.06717588591128587
1760107196023431700,2.399431640625,-0.8283692244946956,-0.47099575601071114,0.14669296514261512
1760107196033496800,2.409496826171875,-0.7531535322517157,-0.4745119474381208,0.17415975833684205
1760107196043562000,2.41956201171875,-0.7748270193994045,-0.5672609582841396,0.23730306426379827
1760107196053627000,2.429626953125,-0.8660644566386938,-0.7244836103454232,0.3213531472822651
1760107196063692800,2.43969287109375,-0.9786492178112268,-0.8430357554897665,0.3478618725666776
1760107196073758000,2.449758056640625,-1.0614303768724203,-0.887962984713912,0.2703398396100849
1760107196083822800,2.45982275390625,-1.0993465582907198,-0.8172413890197873,0.1485545212307945
1760107196093887700,2.4698876953125,-1.1864666233390568,-0.6844044056743382,0.05263334662206471
1760107196103954000,2.479953857421875,-1.3786878158062696,-0.5117246567621827,-0.03266067204289138
1760107196114018800,2.490018798828125,-1.550008259063959,-0.2678200388088822,-0.008612674316205084
1760107196124083700,2.500083740234375,-1.6261287911921738,0.03247428262531757,0.07695767707210034
1760107196134148900,2.51014892578125,-1.5983347753375767,0.32421646429151296,0.1364787008486688
1760107196144214000,2.520214111328125,-1.4036439778864382,0.5249617394760251,0.13078417900148778
1760107196154280000,2.530280029296875,-0.9873948343247174,0.6365542747408152,0.08638378666304052
1760107196164344800,2.5403447265625,-0.47671851757168765,0.6823541951462626,0.04412095434255898
1760107196174410000,2.550409912109375,-0.16520926690101623,0.6772846367970109,0.1090761319970712
1760107196184475000,2.560474853515625,-0.05923544830083847,0.723195324100554,0.23847006221655756
1760107196194539800,2.570539794921875,-0.1388280404537916,0.8472557112723589,0.3098691553134471
1760107196204605700,2.580605712890625,-0.3146995711445808,0.953312824241817,0.31292978499308227
1760107196214670800,2.5906708984375,-0.3818868552327156,1.0152192453175783,0.28569197824914006
1760107196224735700,2.60073583984375,-0.2342775424301624,0.9962857045277953,0.2582599275747314
1760107196234800600,2.610800537109375,0.09797463653981685,0.8982973317235707,0.26070501917190847
1760107196244865500,2.620865478515625,0.5352256515979766,0.762701697319746,0.2542289550255984
1760107196254931700,2.630931640625,1.001047512102127,0.6361737509906291,0.301846336649172
1760107196264996600,2.64099658203125,1.3246668872833252,0.5944181375399231,0.37557365349791944
1760107196275061500,2.6510615234375,1.3588000430315732,0.6013178339257836,0.3164793672334403
1760107196285126700,2.661126708984375,1.202511164689064,0.6049950611338019,0.19561028691623358
1760107196295192600,2.671192626953125,0.950972106334567,0.5787520741134882,0.12013002545293419
1760107196305257500,2.681257568359375,0.6793085438400507,0.5410314152672887,0.08124605844840407
1760107196315322600,2.691322509765625,0.4791518821984529,0.5242068294554949,0.0697548330212012
1760107196325387500,2.701387451171875,0.35899639351069923,0.5111395503506064,0.13535554203763603
1760107196335452700,2.71145263671875,0.27837796544134613,0.5121639249622821,0.19604279658198356
1760107196345518600,2.7215185546875,0.18785773656070232,0.5056301392793655,0.2227448524814099
1760107196355583700,2.731583740234375,0.09107377111017703,0.4673018699288368,0.24519253887198864
1760107196365648400,2.7416484375,-0.006218728384375572,0.3900532105535269,0.21745511204283682
1760107196375713500,2.751713623046875,-0.05259761772155761,0.31005583699196576,0.14019167522350326
1760107196385778700,2.76177880859375,-0.05120177944898605,0.2477434654638171,0.18477748886514453
1760107196395844600,2.7718447265625,-0.0023170447707176207,0.23445728291124104,0.35148009959645565
1760107196405909500,2.781909423828125,0.10994798292815684,0.3183417270392179,0.5501010395707562
1760107196415974700,2.791974609375,0.3256055805623531,0.42248014690577984,0.63538661920093
1760107196426039800,2.802039794921875,0.5082680865675211,0.44774698237031696,0.670568480284512
1760107196436104400,2.8121044921875,0.5845195515990257,0.4006646209388971,0.6490854011423886
1760107196446170600,2.822170654296875,0.5865186164617539,0.3453364092096686,0.5113094635574147
1760107196456235500,2.832235595703125,0.5307476294010878,0.2571463768422603,0.3462861111499369
1760107196466300400,2.842300537109375,0.4238274698615074,0.20221388643234967,0.3095413115985691
1760107196476365600,2.852365478515625,0.3042138329654932,0.16193331397026775,0.32056232569813725
1760107196486430700,2.8624306640625,0.3011503537416458,0.09855594355911015,0.291695273784548
1760107196496496600,2.87249658203125,0.4181412409186363,0.022564298507571218,0.19687508268766105
1760107196506561500,2.8825615234375,0.5237783749103546,-0.07319061615616082,0.1249285117758438
1760107196516626700,2.892626708984375,0.5472177026867866,-0.18309651350826023,0.03155943280272186
1760107196526691600,2.902691650390625,0.5164098919689655,-0.2731903336703777,-0.03991917353747412
1760107196536756500,2.912756591796875,0.4697340655118227,-0.3393386300995946,-0.10228396937260403
1760107196546822700,2.92282275390625,0.43165363344252106,-0.4063245463967323,-0.1315070316496305
1760107196556887600,2.932887451171875,0.3819903156071901,-0.47737815052419896,-0.07243731357082724
1760107196566952400,2.942952392578125,0.32045243558287617,-0.5215966469570994,-0.03940605464987457
1760107196577017600,2.953017578125,0.32040625835359093,-0.5305518145680427,-0.12855656607989221
1760107196587082800,2.963082763671875,0.29543606774806974,-0.5818795584842562,-0.2310857241189107
1760107196597148700,2.973148681640625,0.24377894574701783,-0.7039782901942729,-0.27658092595674094
1760107196607213600,2.983213623046875,0.21726678639650343,-0.7770692453682422,-0.2663226215916686
1760107196617278500,2.993278564453125,0.196036366841197,-0.7732815435230731,-0.28588673363626
1760107196627343600,3.003343505859375,0.2032733323574066,-0.7573945308223367,-0.2958546950189397
1760107196637409800,3.013409912109375,0.18975451009273528,-0.7034697561502457,-0.2925154675936326
1760107196647474400,3.023474365234375,0.11784662722349167,-0.6723734838798642,-0.30410072797983884
1760107196657539600,3.03353955078125,-0.023263386687636375,-0.6805427618101239,-0.29964541080510243
1760107196667604700,3.043604736328125,-0.21579671384394167,-0.6791665050208568,-0.294635583286453
1760107196677669600,3.053669677734375,-0.4052472725540399,-0.6452832323804497,-0.34020817947573956
1760107196687735600,3.063735595703125,-0.5476619393229484,-0.6393497506782412,-0.37734183221422135
1760107196697800700,3.07380078125,-0.5634861159205437,-0.6299924320071936,-0.35641298942137506
1760107196707865600,3.083865478515625,-0.4827431846886873,-0.623402532222867,-0.2776768679672852
1760107196717930500,3.093930419921875,-0.36259938643872736,-0.5878323294088245,-0.17118366513550282
1760107196727995600,3.10399560546875,-0.29882278757691383,-0.57402066167742,-0.004098795354645699
1760107196738061600,3.1140615234375,-0.2873375169664621,-0.6084872871637343,0.2022958290947601
1760107196748126500,3.12412646484375,-0.3479489297956228,-0.6476522995993494,0.3757175554806366
1760107196758191600,3.134191650390625,-0.45261283484101295,-0.6178554194897413,0.46289797241408376
1760107196768256800,3.1442568359375,-0.6040186173170805,-0.6090460900902748,0.4243202218145132
1760107196778321400,3.1543212890625,-0.7896744599193334,-0.5638514421015978,0.38053010686151684
1760107196788387600,3.1643876953125,-0.9895324308753013,-0.5066638662412762,0.3566257188566029
1760107196798452700,3.17445263671875,-1.100517940157652,-0.44565497852712865,0.33264716963693497
1760107196808517600,3.184517578125,-1.0577601639270782,-0.37804070119857786,0.33623638976793735
1760107196818582500,3.19458251953125,-0.906844210794568,-0.28193770374953747,0.3857674595257267
1760107196828647700,3.204647705078125,-0.7501479206949472,-0.15787234814167023,0.4235229704895988
1760107196838713600,3.214713623046875,-0.6159428638666867,0.003370645476877689,0.47524859114959833
1760107196848778500,3.224778564453125,-0.5358651185452937,0.14551292504519223,0.5569260632852092
1760107196858843600,3.23484375,-0.5512929893016815,0.24745091225802898,0.580426985055767
1760107196868908500,3.244908447265625,-0.6479045207947493,0.3179007052734494,0.5230850954165682
1760107196878973400,3.254973388671875,-0.848081640702486,0.36308746221661564,0.39885293187443166
1760107196889039600,3.26503955078125,-1.093240642631054,0.38101533309519287,0.26130959746893495
1760107196899104500,3.2751044921875,-1.345107617765665,0.37554683855623006,0.13599198591080494
1760107196909169700,3.285169677734375,-1.5507926874399185,0.40067952624708414,0.04964751291142311
1760107196919234600,3.295234619140625,-1.4821137034893035,0.47334787209481,-0.00981184837236069
1760107196929299700,3.3052998046875,-1.1236287666320801,0.4782680851012468,0.025319364802795463
1760107196939365600,3.31536572265625,-0.5319757098913193,0.42351738099902864,0.08933793289405294
1760107196949430500,3.325430419921875,0.05528875650167465,0.3879492240116,0.17753164592273532
1760107196959495400,3.335495361328125,0.42907063121199607,0.4009717871919274,0.2712384324176237
1760107196969560600,3.345560546875,0.5816273372888565,0.48283378558158874,0.3095673958878964
1760107196979625500,3.35562548828125,0.5675578954041004,0.557784104886651,0.3536969719283283
1760107196989691400,3.36569140625,0.4788035071521997,0.640724838423729,0.4101394285097718
1760107196999756500,3.375756591796875,0.3964636621177196,0.7520227746561169,0.40836014387756586
1760107197009821700,3.38582177734375,0.40231238814592357,0.8173594624415039,0.3070634137103334
1760107197019886600,3.395886474609375,0.43421676192879677,0.7702177720382809,0.1626321098893881
1760107197029952500,3.405952392578125,0.4723778580188751,0.6358306366413832,-0.0075264134494587775
1760107197040017700,3.416017578125,0.45677872234880923,0.48775516763180493,-0.1524007026643958
1760107197050082600,3.42608251953125,0.41642683821618554,0.35780338433384895,-0.23319698065184055
1760107197060147500,3.4361474609375,0.39889702674448485,0.28473639455735683,-0.26338286007903516
1760107197070212600,3.446212646484375,0.3311538623392582,0.2727083953723311,-0.27809823518451304
1760107197080277800,3.45627783203125,0.19694003768265247,0.3097673754394054,-0.183403844158072
1760107197090343400,3.466343505859375,-0.016753566402196884,0.40479572939425706,-0.0007964156412752345
1760107197100408600,3.47640869140625,-0.3260316970199346,0.5003025145158171,0.229612199233938
1760107197110473700,3.4864736328125,-0.5932751049846411,0.5775619875460862,0.4715477273376658
1760107197120538400,3.496538330078125,-0.6756155345410109,0.5915206625327467,0.6865019624754786
1760107197130604500,3.5066044921875,-0.47172670063376426,0.5408475831329822,0.7998396609071642
1760107197140669700,3.516669677734375,-0.05502630617320537,0.4345665982797742,0.8182595530863851
1760107197150734600,3.526734619140625,0.4608680374890566,0.2586865920215845,0.73055094756037
1760107197160799500,3.536799560546875,0.9396201067149639,0.02852437595576048,0.5361234406879172
1760107197170864600,3.54686474609375,1.2210872703433036,-0.2443079380571842,0.2844279131300747
1760107197180930600,3.5569306640625,1.216254443359375,-0.4633575162172317,0.04542019123970531
1760107197190995700,3.56699560546875,0.9893331089109182,-0.58878246974051,-0.07013825654794928
1760107197201060600,3.577060546875,0.6770914523124695,-0.5694207666665315,-0.06118621704243123
1760107197211125500,3.58712548828125,0.410952206197381,-0.48112025966197247,-0.0720093659157632
1760107197221190700,3.597190673828125,0.3214163121789694,-0.4058239033982157,-0.06814232892380095
1760107197231256000,3.607256103515625,0.3674176003754139,-0.39450463700443505,-0.04211501678104978
1760107197241321000,3.617321044921875,0.48099487971663474,-0.47088294328600167,-0.05304001859365962
1760107197251386000,3.62738623046875,0.6489186662733555,-0.6205170399144292,-0.13333752587926573
1760107197261451000,3.637450927734375,0.8248878121197223,-0.759583273038268,-0.20822131015360354
1760107197271516200,3.64751611328125,0.9221908330082893,-0.8547387605041264,-0.27894526220159604
1760107197281582000,3.65758203125,0.9346966788381338,-0.9011226182773708,-0.28017725168196483
1760107197291647200,3.667647216796875,0.8063058612465858,-0.8530766725108027,-0.21895541533688082
1760107197301712100,3.677712158203125,0.6581184562951325,-0.7526733475193381,-0.1550122277365066
1760107197311777000,3.687777099609375,0.5427496173620223,-0.6345809288412332,-0.08086298654810525
1760107197321842200,3.69784228515625,0.3978641765654087,-0.5348629557654261,-0.003634569668158656
1760107197331908000,3.707908203125,0.31200667879879473,-0.5240235818430781,0.03627134367058752
1760107197341973000,3.717972900390625,0.3161509389966726,-0.5454495239704847,0.014981435313273686
1760107197352038100,3.7280380859375,0.35446108816862104,-0.6187482766762376,-0.009058276358968578
1760107197362103000,3.73810302734375,0.4539028746515512,-0.7207339024230838,-0.0030958197240252045
1760107197372168200,3.748168212890625,0.5660363849252462,-0.7966948600754141,0.02081945043450687
1760107197382234000,3.758234130859375,0.6594581804662942,-0.8039113673254847,0.021400944683467968
1760107197392299300,3.76829931640625,0.6539572449624538,-0.7621542925700545,0.003549116449477151
1760107197402364000,3.778364013671875,0.5405453853160143,-0.7361018596857786,0.056410997430677526
1760107197412429000,3.788428955078125,0.3240694570362568,-0.708165220490098,0.13663009201809764
1760107197422494200,3.798494140625,0.044509588333964345,-0.6472571628019214,0.18189365879083053
1760107197432559900,3.808559814453125,-0.21845979557335377,-0.5273585714846849,0.19190807139743118
1760107197442625000,3.818625,-0.4924702134549617,-0.45655543498694895,0.2573648601648398
1760107197452690200,3.828690185546875,-0.7697340801745652,-0.39860535032153127,0.32696159828118976
1760107197462755000,3.838755126953125,-0.9875865575045346,-0.3352443465232849,0.29589572114907203
1760107197472820000,3.848820068359375,-1.1548574331104755,-0.3503939848601818,0.20037761091589926
1760107197482886100,3.85888623046875,-1.1607067436605691,-0.47328065207749603,0.1572217935447581
1760107197492951000,3.868950927734375,-1.051053944286704,-0.6267740544825792,0.21159926215410232
1760107197503016000,3.879015869140625,-1.0765507891148327,-0.7290726917013526,0.13142673295503482
1760107197513081000,3.8890810546875,-1.2339759780108928,-0.775445151297748,0.03188301590101328
1760107197523146200,3.899146240234375,-1.3891677087664602,-0.7735837413400412,0.07070391847353893
1760107197533212200,3.909212158203125,-1.5489403375715016,-0.7591054263934492,0.1850023653958924
1760107197543277000,3.919277099609375,-1.6345423992723225,-0.6215370306119322,0.31545762297026814
1760107197553342200,3.92934228515625,-1.7338117517977951,-0.4492454042345285,0.3330255014300346
1760107197563407000,3.939406982421875,-1.872128335598111,-0.25890724903494117,0.28881834837505593
1760107197573472000,3.949471923828125,-1.955520320034027,-0.0893000394359231,0.2893281062617898
1760107197583538200,3.9595380859375,-2.004368814355135,0.06095861883163452,0.27639439040869473
1760107197593603000,3.96960302734375,-1.9016238946735857,0.24392127682715653,0.33901451271176336
1760107197603668000,3.97966796875,-1.6873317401736974,0.40891017897576093,0.47452484345231205
1760107197613733000,3.989733154296875,-1.2776245656013487,0.5405222967013716,0.5810502680532634
1760107197623798000,3.999798095703125,-0.8030202637046575,0.6738719057440757,0.6153172062490135
1760107197633864200,4.0098642578125,-0.48566111796200273,0.7791755699977279,0.6075109529448672
1760107197643929000,4.01992919921875,-0.4427238935112953,0.857955092202127,0.6610502719633281
1760107197653994000,4.029993896484375,-0.5750660790771246,0.9371157226786017,0.6682380645755678
1760107197664059100,4.04005908203125,-0.687929657191038,0.9772148010939359,0.5851551095562055
1760107197674124000,4.0501240234375,-0.5403863953620195,0.9805872001364827,0.4176445434428751
1760107197684190000,4.06018994140625,-0.11159458109140395,0.8426379883438349,0.22787454352006314
1760107197694255000,4.070255126953125,0.40946284442245956,0.5838236782893538,0.05168504205443896
1760107197704320300,4.0803203125,0.9489800557345152,0.33629122522771354,-0.04806458653495647
1760107197714385200,4.09038525390625,1.324201023337245,0.27587796531915665,0.022460363209061324
1760107197724450000,4.100449951171875,1.5527040740191935,0.330307474642992,0.12284829883514903
1760107197734516200,4.11051611328125,1.5528309152692557,0.3820025905668735,0.29973009341387075
1760107197744580900,4.120580810546875,1.3751643178552388,0.4425903302595019,0.4792334960673004
1760107197754646000,4.13064599609375,1.0244985303163527,0.5276692448690533,0.5751493003811687
1760107197764711200,4.140711181640625,0.6486047780185937,0.6202043207034468,0.5509644514670595
1760107197774776000,4.150776123046875,0.3553051377773285,0.623637510022521,0.4912478685857728
1760107197784842000,4.160842041015625,0.21088848353624343,0.5351005639135837,0.4049836531817913
1760107197794907100,4.1709072265625,0.1652852547466755,0.4144973314583301,0.2438697293030098
1760107197804972300,4.18097216796875,0.11886135722398757,0.283659997497499,0.08008976455274969
1760107197815037000,4.191036865234375,0.08141454688310623,0.17466040133535862,-0.0008919039134925697
1760107197825102000,4.20110205078125,0.04442132552862167,0.12268851429671049,0.03727264108406379
1760107197835168000,4.21116796875,0.07096388001739978,0.12572890490591526,0.14746373945255764
1760107197845233000,4.22123291015625,0.10283201344311237,0.16041794097125528,0.33319377066902817
1760107197855298000,4.231298095703125,0.16234160251021384,0.2347527587264776,0.5141423488957807
1760107197865363200,4.24136328125,0.2676408828496933,0.3028241321727633,0.6291955094758421
1760107197875427800,4.251427734375,0.38124855732917784,0.2826014283552766,0.6056016852574423
1760107197885494000,4.261493896484375,0.4377507812738418,0.2387336450561881,0.5232773300530389
1760107197895559200,4.27155908203125,0.3674380586415529,0.17643500979244708,0.43087720570992677
1760107197905624000,4.2816240234375,0.20867256105244159,0.14560966341793535,0.28475151906125246
1760107197915689000,4.29168896484375,0.019672084197402,0.14442892920076847,0.17798704327372833
1760107197925754000,4.301754150390625,-0.07564531583189964,0.1193307283014059,0.12967406233511863
1760107197935820000,4.311820068359375,-0.09239420605897902,0.06961568027883767,0.08223574533918872
1760107197945885200,4.32188525390625,0.007124152791500091,-0.009656886139512062,0.008123452327423729
1760107197955950000,4.3319501953125,0.18879823228120804,-0.0975523194745183,-0.14139348876131697
1760107197966015000,4.342014892578125,0.37387013751566406,-0.21202157921940087,-0.25476591144651173
1760107197976080100,4.352080078125,0.5599988583266735,-0.31351094588190315,-0.31048326862379905
1760107197986146000,4.36214599609375,0.7041121457070112,-0.35550095261037346,-0.26142029130179434
1760107197996211000,4.3722109375,0.7827490445703268,-0.3632373920813203,-0.1701776664307341
1760107198006276000,4.382276123046875,0.7955465668231249,-0.3533773845851421,-0.0867607119503431
1760107198016341000,4.392341064453125,0.750629566732049,-0.3352498994812369,-0.03863355417372659
1760107198026406100,4.40240625,0.6812748754769563,-0.31446137847453354,-0.0753170976576861
1760107198036472000,4.41247216796875,0.6205541570544243,-0.35625878524035215,-0.14149900409555993
1760107198046537200,4.422537109375,0.575490441969037,-0.44692397554963825,-0.178541444019787
1760107198056602000,4.43260205078125,0.5476239454001188,-0.49776919664591546,-0.18439535767976192
1760107198066667000,4.4426669921875,0.4750818562805652,-0.5062202141270041,-0.17742792981993405
1760107198076732200,4.452732177734375,0.33021395114064217,-0.43273032276332374,-0.19427067234292625
1760107198086798000,4.462798095703125,0.12292203079164027,-0.3571031271100044,-0.22267365040872245
1760107198096863000,4.472863037109375,-0.09987374815940857,-0.3112193278133869,-0.26688431059503925
1760107198106928000,4.48292822265625,-0.3887169935137033,-0.31857085961997506,-0.27505452010706066
1760107198116993300,4.4929931640625,-0.8117746480464935,-0.32912440233826634,-0.22229661552356555
1760107198127058000,4.503057861328125,-1.2054805358886718,-0.27772446996867656,-0.19666620744364335
1760107198137124000,4.5131240234375,-1.4552058228194713,-0.18594342737197875,-0.2279916670937091
1760107198147189200,4.523189208984375,-1.4930366640418766,-0.11992927871644496,-0.24850909780776126
1760107198157254000,4.53325390625,-1.3500526729524134,-0.2101350348204374,-0.16422328807096928
1760107198167319000,4.543319091796875,-1.0609072297811508,-0.3722279232665896,-0.009981040059961378
1760107198177384200,4.55338427734375,-0.7693570635557174,-0.5086576704069972,0.10289559846492484
1760107198187450000,4.5634501953125,-0.5406517682999372,-0.5166638667300343,0.13818353200517594
1760107198197515000,4.573514892578125,-0.5270312392264604,-0.46453912721723317,0.04649011289300397
1760107198207580200,4.583580078125,-0.6930395475506782,-0.42753772255629297,-0.021528964110463858
1760107198217645000,4.59364501953125,-0.9261492152452468,-0.3540335104063153,-0.060136415728554125
1760107198227710000,4.6037099609375,-1.0492623846948146,-0.2729439576938748,-0.14985599575079978
1760107198237777000,4.61377685546875,-0.9707722008258104,-0.1439060743704438,-0.2724144356607459
1760107198247842000,4.623842041015625,-0.7215443420231342,0.01030745900273323,-0.39458106324151154
1760107198257907000,4.633906982421875,-0.4721574932664633,0.09950257675945758,-0.35745446129832414
1760107198267972000,4.64397216796875,-0.3795072666198015,0.15799392869472503,-0.15755022178152575
1760107198278037000,4.654037109375,-0.41488428494930263,0.24743396112322805,0.12640540679483675
1760107198288103000,4.66410302734375,-0.537298950740695,0.47033553853631016,0.3052208728498779
1760107198298168000,4.67416796875,-0.7221364626973867,0.7434665432348847,0.43176896691787986
1760107198308233000,4.68423291015625,-1.0322364310920238,0.9040282765910029,0.5345634248295799
1760107198318297900,4.6942978515625,-1.4708172334492207,0.8626189923599362,0.4843769233703613
1760107198328363000,4.704363037109375,-1.7438129213303326,0.6881140738472342,0.3420272846616804
1760107198338429000,4.714428955078125,-1.5402724624693394,0.562750787383318,0.21523818491203708
1760107198348494000,4.724494140625,-0.8806003469914198,0.5057987738445401,0.0901938830031082
1760107198358559000,4.73455908203125,-0.11219546959400176,0.4682490876510739,0.06189535169247538
1760107198368623900,4.744623779296875,0.4870125325709581,0.40820378427207465,0.05507705911290831
1760107198378689000,4.75468896484375,0.834299199065566,0.3448664536103606,0.08573681226270273
1760107198388754000,4.76475390625,0.9976000019967556,0.35516456026285886,0.1421719988531433
1760107198398819800,4.77481982421875,1.0075742835223673,0.426017673382163,0.18536349032586438
1760107198408885000,4.784885009765625,0.9414660268425941,0.4837801265209913,0.21001533569721503
1760107198418950000,4.794949951171875,0.8572299927979707,0.5210100792407989,0.16644553069770335
1760107198429015000,4.80501513671875,0.7115782438039779,0.5024982709944248,-0.018276620384166015
1760107198439080000,4.815079833984375,0.5618044464439154,0.4227756227210164,-0.25300394327528775
1760107198449146000,4.82514599609375,0.4573842870265245,0.3075698653951287,-0.4598670437529683
1760107198459210800,4.835210693359375,0.2992150017648935,0.18919132325202226,-0.636657515919581
1760107198469276000,4.84527587890625,0.07951075908839703,0.1499783800214529,-0.6637348348721861
1760107198479341000,4.855341064453125,-0.18895605319142342,0.25517156963795423,-0.5613376691823825
1760107198489406000,4.865406005859375,-0.4539005365639925,0.40472354094088075,-0.427444491314888
1760107198499472000,4.875471923828125,-0.6687719522565603,0.48838060605376954,-0.15558252017144114
1760107198509537000,4.885537109375,-0.7910165221780538,0.5287696073263883,0.18854697920018806
1760107198519602200,4.895602294921875,-0.7592237920761108,0.5839338606655597,0.4268156188268214
1760107198529666800,4.905666748046875,-0.5648720173209906,0.6390133583307266,0.5703003259800374
1760107198539732000,4.91573193359375,-0.3287438785880804,0.613200871682167,0.6401523722980171
1760107198549798000,4.9257978515625,-0.08255202648043632,0.4803893150389194,0.5755741016644984
1760107198559862800,4.93586279296875,0.25102058743834493,0.30489626227170225,0.42112482330668716
1760107198569928000,4.945927978515625,0.5554103614926338,0.11056932969689369,0.25150038857823237
1760107198579993000,4.9559931640625,0.8197767527163028,-0.05113485169261694,0.16783400764772669
1760107198590057700,4.9660576171875,0.9984387909084558,-0.1741445607677102,0.12630587367680854
1760107198600124000,4.9761240234375,1.0309504829347134,-0.2997676672115922,0.09019118872252292
1760107198610189000,4.98618896484375,0.9449363333016634,-0.341008901399374,0.043628467251034454
1760107198620254000,4.99625390625,0.8205664417892694,-0.3294523191183805,-0.05138390368339606
1760107198630318800,5.00631884765625,0.6854366713315249,-0.27470278405994175,-0.05872834816207178
1760107198640384000,5.016384033203125,0.5839736081540584,-0.2388113864675164,-0.04698177800062112
1760107198650450000,5.026449951171875,0.5090396554619073,-0.2277668453618884,-0.03342194330554921
1760107198660515000,5.03651513671875,0.46738253394961354,-0.20507365977764128,0.013924203036545077
1760107198670580000,5.046580078125,0.43985915172994133,-0.21458909161984918,0.06312772933191153
1760107198680644900,5.056644775390625,0.45307343809008593,-0.2736722719684243,0.13276084936931729
1760107198690710000,5.0667099609375,0.43439387206137176,-0.3071127692773938,0.2437094789736904
1760107198700776000,5.07677587890625,0.430721321028471,-0.29516338828653094,0.27713983848113566
1760107198710840800,5.0868408203125,0.47779871402382845,-0.2910395863547921,0.2114751791167073
1760107198720906000,5.096906005859375,0.5614695154011249,-0.34795915892869234,0.13922231873469426
1760107198730971000,5.106970947265625,0.6683966892033815,-0.4702849773928523,0.07261594894020817
1760107198741036000,5.1170361328125,0.7472375862061977,-0.5730427565559745,-0.0009983496878528968
1760107198751102000,5.12710205078125,0.8165005075246096,-0.6334121773228049,-0.11507982939127832
1760107198761167000,5.1371669921875,0.842281429991126,-0.7062079489424824,-0.07409433266338891
1760107198771232000,5.14723193359375,0.7655518260538577,-0.7570385569915175,0.07535916040085722
1760107198781297000,5.157296875,0.5571610045522452,-0.741492612813413,0.12081958775282836
1760107198791362000,5.167362060546875,0.27724165488779545,-0.6752361798346043,0.044984256641007955
1760107198801427000,5.177427001953125,-0.015618424892425537,-0.659436260895431,-0.020792019004886968
1760107198811492900,5.187492919921875,-0.15785773509442805,-0.6789514009654521,-0.051202500968193634
1760107198821558000,5.19755810546875,-0.11047872880399226,-0.688162881425023,-0.05427191674248315
1760107198831623000,5.207622802734375,-0.06477437772750855,-0.71195672172755,0.04537375828209333
1760107198841687800,5.217687744140625,-0.12243746214509009,-0.6987570484146476,0.10499264380941167
1760107198851753000,5.2277529296875,-0.275418531113863,-0.664816784889996,0.14325750166806392
1760107198861819100,5.237819091796875,-0.5795382560551167,-0.6492354771375656,0.1454527101574
1760107198871883800,5.2478837890625,-0.8881874411195516,-0.6797714851766824,0.1613756618211977
1760107198881949000,5.257948974609375,-1.125801434496045,-0.7000628703162074,0.2044905626600608
1760107198892014000,5.26801416015625,-1.3343769649147987,-0.7120172197431326,0.2720736776653677
1760107198902079000,5.278078857421875,-1.391587044867873,-0.7492860431686044,0.40097814386747777
1760107198912145000,5.288144775390625,-1.3776105419635771,-0.7393056241631507,0.4972498124143108
1760107198922210000,5.2982099609375,-1.4133242449015377,-0.6679401776075363,0.46133901600167154
1760107198932275000,5.30827490234375,-1.4228350005686283,-0.6291919292792677,0.4110471910044551
1760107198942339800,5.31833984375,-1.3510171340703963,-0.648384121005237,0.4029404569163918
1760107198952405000,5.328405029296875,-1.1439485010832549,-0.6342006973519921,0.3653472603747621
1760107198962471000,5.338470947265625,-0.9554361000061035,-0.5589335671827197,0.35931046442855147
1760107198972535800,5.348535888671875,-0.9476040912061929,-0.3662015025839209,0.4110907744178548
1760107198982601000,5.35860107421875,-1.071335684815049,-0.10313742613047361,0.4736114914670586
1760107198992666000,5.368666015625,-1.2913304348707197,0.05121843832284212,0.5179573406066745
1760107199002730800,5.378730712890625,-1.4170435576856135,0.240613759714365,0.5787690252482891
1760107199012797000,5.388796875,-1.3983879570543765,0.3889896729752421,0.601899871597439
1760107199022862000,5.398862060546875,-1.2920096493065356,0.4599745957806706,0.49378268429301675
1760107199032927000,5.408927001953125,-1.085261918836832,0.44323330433815716,0.3071126231469214
1760107199042991900,5.418991943359375,-0.869230811715126,0.396313732253015,0.13292936520348303
1760107199053057000,5.42905712890625,-0.7199673019647598,0.424089335668087,-0.009579619652219117
1760107199063122000,5.439121826171875,-0.502975240856409,0.5538388743922114,-0.04407581829288974
1760107199073188000,5.44918798828125,-0.22711831832528112,0.6892176511749625,0.06437390716783702
1760107199083253000,5.4592529296875,0.13640636626482008,0.7589777083605528,0.18178519344767555
1760107199093318000,5.46931787109375,0.515448353460431,0.7158221649840474,0.2928764646594412
1760107199103383000,5.479383056640625,0.7834434565752744,0.641878976894915,0.342926133197546
1760107199113448000,5.489447998046875,0.9442635486066341,0.574843376237154,0.22429399988586082
1760107199123513900,5.499513916015625,1.050654715836048,0.5173080098524689,0.06246610078513622
1760107199133579000,5.5095791015625,1.0951531982541083,0.5014931856051087,-0.07562730525117367
1760107199143644000,5.519643798828125,0.9910539413541555,0.47593321241289377,-0.14483323568534104
1760107199153709000,5.529708984375,0.798299080401659,0.4686474393188953,-0.12090376803809776
1760107199163774000,5.53977392578125,0.5989315233111381,0.5393997224122286,-0.09678356359172612
1760107199173840100,5.549840087890625,0.42784839594066143,0.6076598964288831,-0.10717429869743063
1760107199183904800,5.55990478515625,0.23137948290109633,0.6029127019017935,-0.07059685506960377
1760107199193970000,5.569969970703125,-0.009435352343320847,0.6087289869651198,-0.04738463231362402
1760107199204035000,5.58003515625,-0.2422819851875305,0.5198159010201693,0.02597596098142676
1760107199214100000,5.590099853515625,-0.37400107041895386,0.420724827671051,0.06877129274341277
1760107199224166000,5.600165771484375,-0.4051134170413017,0.4511018457561731,0.08579539231583476
1760107199234230500,5.61023046875,-0.18522972614467142,0.5221729855403304,0.14858132703932933
1760107199244295700,5.620295654296875,0.14369301614165306,0.48383565610051155,0.2924233688633889
1760107199254360600,5.630360595703125,0.4275175565510988,0.4248325552508235,0.44523054256998
1760107199264425500,5.640425537109375,0.6020248131513595,0.3618672727718949,0.42243298329580575
1760107199274491600,5.65049169921875,0.6330488969683646,0.26527503050118684,0.35424656863510606
1760107199284556500,5.660556640625,0.5993944646477699,0.1382116621211171,0.37940278333202004
1760107199294621700,5.67062158203125,0.5404325725913047,0.05314443794935941,0.37893655405975873
1760107199304686600,5.6806865234375,0.5224292983889579,0.031393209390342236,0.39012766402922566
1760107199314751700,5.690751708984375,0.4979986214876175,0.03378185809254646,0.4063879670217633
1760107199324816600,5.700816650390625,0.4194166676819324,0.07250935589373111,0.36686935537550597
1760107199334882800,5.7108828125,0.3401344566524029,0.07414192553162574,0.3123184481617063
1760107199344947500,5.720947509765625,0.3250263193696737,0.036811142785847184,0.25645972801866007
1760107199355012600,5.7310126953125,0.38588440043628214,-0.01483048938512802,0.19263311600266023
1760107199365077800,5.741077880859375,0.465048538044095,-0.09129676621109246,0.11792915440779178
1760107199375142700,5.751142578125,0.5303273581624031,-0.1659293978691101,0.09413493051277473
1760107199385208600,5.76120849609375,0.5825058736890554,-0.20583295371234417,0.051680649007111785
1760107199395273700,5.771273681640625,0.6200578979700804,-0.2436374914497137,0.016428590497840196
1760107199405338600,5.781338623046875,0.6217220317900181,-0.307681216815114,0.003893408975657075
1760107199415403500,5.791403564453125,0.5998030454486608,-0.35164340039938685,-0.023234489386714994
1760107199425468700,5.80146875,0.5564531485438347,-0.37841596425175666,-0.0785640619559679
1760107199435534600,5.81153466796875,0.502467875856161,-0.42791912308931346,-0.08606295721083879
1760107199445599500,5.821599609375,0.4238333150804043,-0.466947065141797,-0.07462325190831906
1760107199455664600,5.83166455078125,0.40334991450011726,-0.5096300225704908,-0.08019868655363098
1760107199465729800,5.841729736328125,0.4548673357695341,-0.5504617991745472,-0.17136950656380504
1760107199475794400,5.85179443359375,0.458571450984478,-0.633893238838017,-0.28864220635686066
1760107199485859600,5.861859619140625,0.4387666803181171,-0.7059189028680324,-0.36731392080523073
1760107199495925800,5.87192578125,0.3361339888393879,-0.7106175820782781,-0.429941203501448
1760107199505990400,5.881990478515625,0.11822948906123637,-0.6629714492842554,-0.480147249911353
1760107199516055600,5.8920556640625,-0.2134907749891281,-0.6097834644541144,-0.4670258294664323
1760107199526120700,5.90212060546875,-0.5879115321248769,-0.4896668464720249,-0.40301765033844855
1760107199536185600,5.912185546875,-0.9835177006304263,-0.3359551251411438,-0.3195405814349651
1760107199546251500,5.92225146484375,-1.3535685721188784,-0.21026976711601017,-0.22206194825116543
1760107199556316700,5.932316650390625,-1.5759323893934487,-0.15905483592450617,-0.10842937679244205
1760107199566381600,5.942381591796875,-1.6172522417753934,-0.18033201723098755,-0.030521568521810694
1760107199576446500,5.952446533203125,-1.4648551101744174,-0.264825240907073,-0.013161282097850925
1760107199586511600,5.96251171875,-1.1509002199172973,-0.39486090309619903,0.07909557501678355
1760107199596577500,5.97257763671875,-0.8188754199624061,-0.4437953221350908,0.2021556351727806
1760107199606642700,5.982642578125,-0.5739969885408878,-0.39426118363738055,0.34579445517547425
1760107199616707600,5.99270751953125,-0.5042687877982854,-0.3521910974100232,0.48877753294948484
1760107199626772700,6.002772705078125,-0.5141407779932021,-0.2408651041269302,0.508765039771609
1760107199636837600,6.012837646484375,-0.5148007032066584,-0.06839110691994428,0.4036524411106482
1760107199646903600,6.022903564453125,-0.5076742123275995,0.19510317764431237,0.2526048792214133
1760107199656968700,6.03296875,-0.7108855853646994,0.4086830922216177,0.19897004567291587
1760107199667033600,6.04303369140625,-1.1546610337555407,0.4213838761016726,0.2168118274369277
1760107199677098500,6.053098388671875,-1.6742285129725931,0.4692918747022748,0.23036088044308126
1760107199687163600,6.06316357421875,-2.1091770963072776,0.6674144001677632,0.23145433823559433
1760107199697228500,6.073228515625,-2.2288398330420254,0.933344095185399,0.13421017139479516
1760107199707294700,6.083294677734375,-1.9738392360568044,1.0337629100069403,-0.016410707781277595
1760107199717359600,6.093359619140625,-1.5536556756556033,0.8791109852164983,-0.12794234317168593
1760107199727424500,6.103424560546875,-1.1548819830298422,0.5848506832495332,-0.140885776701197
1760107199737489700,6.11348974609375,-0.7738958760291338,0.3712318979665637,-0.14092300343904643
1760107199747554600,6.123554443359375,-0.4623135601222515,0.3966141765043139,-0.14632172067742794
1760107199757620500,6.133620361328125,-0.16581541610062123,0.5563017573744058,-0.1421776431426406
1760107199767685600,6.143685546875,0.06262041456401347,0.678787442575395,-0.01885733374841511
1760107199777750800,6.153750732421875,0.21350129638314247,0.6911036110520362,0.06667001874838024
1760107199787815700,6.163815673828125,0.3691939623981714,0.6421466879203915,0.017096132762171326
1760107199797880600,6.173880615234375,0.5759691653966903,0.5935992223724722,-0.12600089024771005
1760107199807946800,6.18394677734375,0.8087760507524013,0.5275570166662336,-0.27972952618077396
1760107199818011600,6.19401171875,0.9813467863321303,0.4415232855498791,-0.3963798197591677
1760107199828076500,6.20407666015625,1.0587491749644278,0.31902649443298575,-0.4862215283237397
1760107199838141700,6.2141416015625,1.050902553117275,0.21470102756172418,-0.602395473094657
1760107199848206600,6.22420654296875,0.9301339009672402,0.151287416793406,-0.7039823818475007
1760107199858272500,6.2342724609375,0.7106669741779565,0.13219780865907668,-0.8055904064536095
1760107199868337700,6.244337646484375,0.49260056183636186,0.16986030757725237,-0.8523493811495602
1760107199878402800,6.25440283203125,0.2879547720819712,0.24417232897877691,-0.893746244290471
1760107199888467500,6.264467529296875,0.04431728063225746,0.28558132094889876,-0.8812409829825162
1760107199898532600,6.27453271484375,-0.13683248272240162,0.27759909002333877,-0.7905547498852014
1760107199908597800,6.28459765625,-0.2160615022599697,0.2588365218862891,-0.6895033362485468
1760107199918663700,6.29466357421875,-0.18369126453101634,0.24802841988503932,-0.4984937845934182
1760107199928728600,6.304728515625,-0.023812837263941764,0.29218817186802626,-0.20813092845641076
1760107199938793700,6.314793701171875,0.26024901903271674,0.3349918330669403,0.08246573643647134
1760107199948858600,6.324858642578125,0.5210603481233119,0.3482309616073966,0.3163599786374718
1760107199958923500,6.334923583984375,0.683416563680768,0.34608255140185357,0.43072712971474975
1760107199968989700,6.34498974609375,0.7855453972905874,0.2972188595116138,0.42182551892194897
1760107199979054600,6.3550546875,0.7739946602284908,0.18579495881199837,0.33852172422613946
1760107199989119500,6.365119384765625,0.7188134557545185,0.023822189614176748,0.1757686913708225
1760107199999184600,6.3751845703125,0.6537561694324017,-0.12109189275503159,0.023353476123884317
1760107200009249800,6.385249755859375,0.5593085379749536,-0.18795535171627997,-0.0019259265612810849
1760107200019315700,6.395315673828125,0.45004561470150944,-0.18589082040190696,0.006848989111930132
1760107200029380600,6.405380615234375,0.3510825516462326,-0.19337766902595757,0.002896488626487553
1760107200039445800,6.41544580078125,0.4376461518555879,-0.220742061291635,-0.03297616773284971
1760107200049510700,6.4255107421875,0.6441618271350861,-0.30422844601273535,-0.07846808163505047
1760107200059575600,6.435575439453125,0.8824439290314913,-0.4658627770364284,-0.1633242203393951
1760107200069640700,6.445640625,0.9948486574620008,-0.6484618624165653,-0.21848540493864566
1760107200079706600,6.45570654296875,0.98675595189929,-0.75016136469841,-0.23769966236595064
1760107200089771500,6.465771484375,0.8802087173253297,-0.7498729031458496,-0.2594665268855169
1760107200099836700,6.475836669921875,0.681971041047573,-0.7173314005032181,-0.2022309471650049
1760107200109901600,6.485901611328125,0.4332634067267179,-0.6869380158051848,-0.08216313676070422
1760107200119966500,6.495966552734375,0.23593583103120325,-0.6247811270996928,-0.045482232758402824
1760107200130032600,6.50603271484375,0.08830138378739356,-0.6190569042339921,-0.060980611467733974
1760107200140097500,6.51609765625,-0.021162030494213103,-0.6979308267235755,-0.051778994815051556
1760107200150162700,6.52616259765625,-0.026684008786082267,-0.7943202398985624,-0.05841211268659681
1760107200160227600,6.5362275390625,0.03726385498940944,-0.8340931550994515,-0.08881722435504198
1760107200170292700,6.546292724609375,0.1447720435500145,-0.8590911104947329,-0.12430080833155661
1760107200180358700,6.556358642578125,0.18684885177910326,-0.8674316533386707,-0.12843246477618814
1760107200190423800,6.566423828125,0.08126081762611866,-0.8077502148360014,-0.08983834756370633
1760107200200488400,6.576488525390625,-0.1941109517365694,-0.6765060536399483,-0.06869133197553455
1760107200210553600,6.5865537109375,-0.5936901155263186,-0.5464326897889376,-0.07641668379688635
1760107200220618800,6.59661865234375,-1.0220412002921104,-0.4382531778380275,-0.04860838368861004
1760107200230683600,6.60668359375,-1.3546277257829904,-0.3606140578404069,-0.0024599786390550435
1760107200240749600,6.61674951171875,-1.7199416318774223,-0.2574187640428543,-0.0022921477914787827
1760107200250814700,6.626814697265625,-1.9437971490144728,-0.13057809850275515,-0.0146362637209706
1760107200260880000,6.6368798828125,-2.0204051723986862,-0.09201075969934464,-0.003439692125096917
1760107200270944500,6.646944580078125,-1.9432190568655727,-0.15843787306994198,-0.005020129716955125
1760107200281009700,6.657009765625,-1.5925369027137755,-0.28989684606045485,-0.00882428950658068
1760107200291075600,6.66707568359375,-1.0169096826225519,-0.3556652032613754,0.057431595482956614
1760107200301140700,6.677140625,-0.4415378985971212,-0.35165684440284967,0.281519240875449
1760107200311205600,6.68720556640625,-0.022664251750707624,-0.35771716735512016,0.4788367153020575
1760107200321270800,6.697270751953125,0.24603169310986994,-0.3912389132067561,0.5931949158878996
1760107200331335700,6.707335693359375,0.2641127087235451,-0.32523791629374027,0.49657593174073844
1760107200341400600,6.717400634765625,0.20747078404724598,-0.23731501042991876,0.37571817653514444
1760107200351466800,6.727466796875,-0.015615502282977103,-0.16447247705906629,0.1844663222904317
1760107200361531600,6.73753173828125,-0.33132512725293634,-0.0529208583265543,-0.01438296481333673
1760107200371596800,6.7475966796875,-0.6668588121116161,0.009835749837756156,-0.13261325759217144
1760107200381661700,6.75766162109375,-0.8492050917744636,0.0894654591307044,-0.2058043121397495
1760107200391726800,6.767726806640625,-0.9429875373214482,0.21660452309548853,-0.3263818986970931
1760107200401792800,6.777792724609375,-1.0986474701106548,0.2680748903527856,-0.47601095382422204
1760107200411857700,6.787857666015625,-1.3672738568663596,0.22502222282886503,-0.5125224560763687
1760107200421922600,6.797922607421875,-1.671893932545185,0.24029461076259612,-0.40191432873904703
1760107200431987700,6.80798779296875,-1.8468559471756218,0.39896629258841276,-0.19313794198594986
1760107200442052600,6.818052490234375,-1.658840974226594,0.6577572217673063,0.03913481822675094
1760107200452118500,6.828118408203125,-1.1590367646217345,0.9318281376644968,0.30631493343058974
1760107200462183700,6.83818359375,-0.4764607434183359,1.0188654928654433,0.4842417526833713
1760107200472248800,6.848248779296875,0.1446492939531803,0.8481099900141358,0.517965122054331
1760107200482313700,6.858313720703125,0.6246417186290025,0.563877161064744,0.3539071075476706
1760107200492378600,6.868378662109375,0.9048404697567224,0.32721389254182576,0.058720155722461635
1760107200502443800,6.87844384765625,1.0136083029896021,0.1925610919460654,-0.19491061421427874
1760107200512509700,6.888509765625,1.0252975717395543,0.1656377214461565,-0.29697979005873204
1760107200522574600,6.89857470703125,0.9894798239052295,0.22258272072225807,-0.2653490821180865
1760107200532639700,6.9086396484375,0.880090643903613,0.32089637995809317,-0.24612039430662988
1760107200542705000,6.918704833984375,0.71543491923213,0.4127802984073758,-0.29177053097784517
1760107200552769500,6.92876953125,0.5400666618883609,0.4567009809374809,-0.33403011189531534
1760107200562835700,6.938835693359375,0.43638007744252677,0.45452802081257104,-0.3593855389587581
1760107200572900900,6.94890087890625,0.41185763060450553,0.4584393490374088,-0.3549683801036328
1760107200582965500,6.958965576171875,0.4428542418926954,0.44686172396838664,-0.2619488086879253
1760107200593030700,6.96903076171875,0.47315877926349637,0.40335517519712444,-0.029432037985743953
1760107200603095800,6.979095703125,0.5804524482905864,0.4427671481311321,0.18653439726876095
1760107200613160700,6.98916064453125,0.7233177814364433,0.5080310629412531,0.33015257634222506
1760107200623226600,6.9992265625,0.8946364711284637,0.5526444039106368,0.47922553195655343
1760107200633291800,7.009291748046875,1.0831734221249818,0.4920318220376968,0.5980888619419187
1760107200643357000,7.01935693359375,1.2410621368795633,0.4477148336663842,0.5908916073815896
1760107200653421600,7.029421630859375,1.3768021481901407,0.41787352989315985,0.5020323339831084
1760107200663486700,7.03948681640625,1.345801445248723,0.34521044474244117,0.4207773615758866
1760107200673552600,7.049552734375,1.151437980055809,0.2127799963712692,0.27502259059883655
1760107200683617500,7.059617431640625,0.9082996702998876,0.08147825976908206,0.18092147102411835
1760107200693682700,7.0696826171875,0.7487918299108743,0.052076516456902026,0.10274486488262191
1760107200703747800,7.079747802734375,0.6258300516307354,0.006352876158058643,0.05139308250369504
1760107200713812500,7.0898125,0.4783768061727285,-0.11893062306791544,0.057963734164857304
1760107200723878700,7.099878662109375,0.3397223687201738,-0.2124032720133662,0.10629503164486959
1760107200733943800,7.10994384765625,0.17703063759803772,-0.18269436244815587,0.1164872485037893
1760107200744008700,7.1200087890625,-0.02560848850905895,-0.16636048276275395,0.17392602264620363
1760107200754073600,7.130073486328125,-0.2306879935055971,-0.1795642477288842,0.23846754146590826
1760107200764138800,7.140138671875,-0.39122225433290003,-0.20852321570962667,0.3127683473536745
1760107200774204000,7.150203857421875,-0.3977577935814857,-0.24529051935374735,0.2835061951752752
1760107200784269800,7.160269775390625,-0.28569793306589125,-0.3362602455675602,0.1809528525430709
1760107200794334700,7.170334716796875,-0.14028233091533182,-0.4937295658662915,0.077431669525709
1760107200804399600,7.180399658203125,0.04877192195355892,-0.6562129149347543,-0.04641087364433333
1760107200814464800,7.19046484375,0.12455460042953491,-0.8481593821138143,-0.16609205935122445
1760107200824529700,7.20052978515625,0.09973463194966316,-0.9042243836849927,-0.28007643992230297
1760107200834594800,7.2105947265625,-0.07349076814651488,-0.8139037690296769,-0.33598084410428997
1760107200844660700,7.22066064453125,-0.27382746253013607,-0.6554591739580035,-0.41076694929096846
1760107200854725600,7.2307255859375,-0.5260036497443914,-0.5072957344040274,-0.47096444755699485
1760107200864790800,7.240790771484375,-0.853462164697051,-0.4199550123423338,-0.46030952682346105
1760107200874855700,7.250855712890625,-1.1280261248081922,-0.3904293503895402,-0.39363987340126183
1760107200884920600,7.260920654296875,-1.244596740746498,-0.3136336954787373,-0.28658686299594116
1760107200894986800,7.27098681640625,-1.1441524992227554,-0.16049451333880424,-0.11927282410170882
1760107200905051600,7.2810517578125,-0.9953092607110738,0.020058745427429674,0.12734997590226121
1760107200915116800,7.29111669921875,-0.844396230188012,0.17865823879987,0.373764046792686
1760107200925181700,7.301181640625,-0.6926385655343532,0.24561346769779918,0.6400931163914502
1760107200935246600,7.31124658203125,-0.5599924285858869,0.2572314247772097,0.8844220972366631
1760107200945312800,7.321312744140625,-0.40561201421320436,0.2530553081363439,1.0248606416270136
1760107200955378000,7.3313779296875,-0.30692484548985954,0.2290279513388872,0.9972574721693992
1760107200965442600,7.341442626953125,-0.33861119260787964,0.1411956463679671,0.8425311669684946
1760107200975507700,7.3515078125,-0.4818313305407762,-0.012213584885001181,0.6290621654197573
1760107200985572900,7.36157275390625,-0.6078992581427097,-0.10898878250718116,0.46710967182498425
1760107200995637800,7.3716376953125,-0.6442337233275175,-0.16391542769819498,0.2756055050533265
1760107201005703700,7.38170361328125,-0.5843786818236112,-0.2146612800732255,0.08469745927760378
1760107201015768800,7.391768798828125,-0.5470487758606672,-0.2784828871205449,-0.08693321897303685
1760107201025833700,7.401833740234375,-0.527800470033288,-0.3009142068982124,-0.28200978260505943
1760107201035898600,7.411898681640625,-0.5476368048816919,-0.3179156105816364,-0.38970487203989174
1760107201045963800,7.4219638671875,-0.6738689831346273,-0.32227965101003647,-0.3998139954589307
1760107201056028700,7.432028564453125,-0.9016671004176139,-0.2989408609986305,-0.34431930458899584
1760107201066094600,7.442094482421875,-1.2860592164695261,-0.12994009286016225,-0.18302258975552393
1760107201076159700,7.45215966796875,-1.7531430597335098,0.19159253917485475,0.14250055495407432
1760107201086225000,7.462224853515625,-2.0199697035908697,0.5202206824287772,0.41501993056032804
1760107201096289500,7.47228955078125,-1.9816455258935688,0.7030193820342421,0.5063784734286367
1760107201106354700,7.482354736328125,-1.7360849574267863,0.776642544388771,0.46813284086026247
1760107201116420900,7.4924208984375,-1.247711073374748,0.6624073856607079,0.2616332399327308
1760107201126485500,7.502485595703125,-0.6663631375491619,0.38493279879987236,0.012304345608106814
1760107201136550700,7.512550537109375,-0.09711597388386725,0.11906214049309491,-0.21461579696368424
1760107201146615800,7.52261572265625,0.3180406982660293,-0.00940554172694683,-0.3633962724374607
1760107201156680700,7.5326806640625,0.624618337753415,0.03841740893870592,-0.3966099752532318
1760107201166746600,7.54274658203125,0.8805161758393049,0.17233838812857866,-0.3720745958684012
1760107201176811800,7.552811767578125,1.02978202367723,0.30353286496400833,-0.306091134612076
1760107201186876700,7.562876708984375,1.077341062709689,0.4003425493776798,-0.2506703309622593
1760107201196941600,7.572941650390625,0.9371019864141941,0.4237000440895557,-0.24422380343768743
1760107201207006700,7.5830068359375,0.6461883645266294,0.4092562159344554,-0.35167083639558405
1760107201217071900,7.59307177734375,0.3202805861473083,0.3459410971045494,-0.5219974097777158
1760107201227137800,7.6031376953125,0.09068038787841796,0.31558015337139367,-0.7070793980147689
1760107201237202400,7.613202392578125,-0.03414309262037277,0.3200380095630884,-0.831990337601304
1760107201247267600,7.623267578125,-0.04102233074009418,0.3073348875954747,-0.761970460435748
1760107201257332500,7.63333251953125,0.05046703543365001,0.34619214925616976,-0.5226255516134202
1760107201267397400,7.6433974609375,0.20517945823967457,0.46509325396865603,-0.24620078433277084
1760107201277462500,7.653462646484375,0.3187871327191591,0.5919730824753642,-0.022766159488912672
1760107201287528400,7.663528564453125,0.3267664410352707,0.653195905201137,0.12970222898367792
1760107201297593300,7.67359326171875,0.27429098838865756,0.6597536562815308,0.21907118720365687
1760107201307658500,7.683658447265625,0.2240565926671028,0.6149500534370541,0.27918252328988163
1760107201317723400,7.693723388671875,0.210201085793972,0.5442410249635576,0.3656221317933872
1760107201327788300,7.703788330078125,0.22754501930475235,0.451764109057188,0.41085017059501255
1760107201337854500,7.7138544921875,0.2993026800483465,0.3816057002037763,0.4092022572575137
1760107201347919400,7.72391943359375,0.42009529759585856,0.28967531226426363,0.35936646893210705
1760107201357984500,7.733984619140625,0.6027642333418131,0.13354717744141817,0.24225725260507314
1760107201368049400,7.74404931640625,0.7473498144090175,-0.07705489036887883,0.11616325898012146
1760107201378114600,7.754114501953125,0.8063228123813867,-0.22997633810490367,0.0002210680053103715
1760107201388179500,7.764179443359375,0.8045932121098041,-0.2984823035761714,-0.0688151410182938
1760107201398245600,7.77424560546875,0.7694178538322448,-0.2755637848034501,0.003921484292671084
1760107201408310500,7.784310546875,0.70390931661129,-0.2441831426337361,0.10720549755329266
1760107201418375400,7.79437548828125,0.6517489212632179,-0.21266806042939423,0.2371016416738741
1760107201428440600,7.804440673828125,0.6970154654443264,-0.20269085629433392,0.3295346636395901
1760107201438505500,7.81450537109375,0.8192804936319589,-0.2580968094348907,0.33775347980000076
1760107201448571400,7.8245712890625,0.9879086290657519,-0.36722090875953434,0.2913858790418133
1760107201458636500,7.834636474609375,1.1123439870297909,-0.5261301987335085,0.16678963142763822
1760107201468701400,7.844701416015625,1.1315572215437888,-0.6878425634294748,-0.03423916427283548
1760107201478766300,7.854766357421875,1.0301520260334014,-0.7923957015767693,-0.20112148808576166
1760107201488831500,7.86483154296875,0.8541098149508237,-0.8465086922973394,-0.22954185567777602
1760107201498896400,7.874896484375,0.6369353830128908,-0.8310428276181221,-0.16467899594921617
1760107201508962300,7.88496240234375,0.43949850172400473,-0.7186474515378475,-0.06790394445750862
1760107201519027500,7.89502734375,0.30744916162490843,-0.6049678808659315,0.055040179434930905
1760107201529092600,7.905092529296875,0.3182476190149784,-0.5573568193852901,0.1383965537013486
1760107201539157500,7.915157470703125,0.463668481862545,-0.6077741704583167,0.13013378880135715
1760107201549222400,7.925222412109375,0.5886971295446157,-0.7353712073236703,0.021172999412799254
1760107201559288600,7.93528857421875,0.6370370898216963,-0.853643074221909,-0.1308995216100011
1760107201569353200,7.945353271484375,0.4832943888306617,-0.9553303015440702,-0.25187621788699177
1760107201579418400,7.95541845703125,0.1797930880486965,-1.0782675299048423,-0.2065435131344944
1760107201589483500,7.9654833984375,-0.22375439485013485,-1.0346519678011536,-0.1141468137243297
1760107201599548400,7.97554833984375,-0.6618658261299133,-0.8389578385263681,-0.10459496799502521
1760107201609613300,7.98561328125,-1.0435831700146199,-0.6744514591977,-0.030738764069601892
1760107201619679500,7.995679443359375,-1.2960732454836368,-0.5601897047236561,0.11853123022047803
1760107201629744600,8.00574462890625,-1.4125672890543937,-0.4927621821388602,0.2424302528181113
1760107201639809300,8.015809326171874,-1.3981664232581854,-0.4497705971524119,0.3333446503818035
1760107201649874400,8.02587451171875,-1.4285165533363817,-0.4988882638037204,0.31740433659125117
1760107201659939600,8.035939697265626,-1.500652984264493,-0.623214023913443,0.22280600808411835
1760107201670005500,8.046005615234375,-1.5230419262051582,-0.730151719109714,0.19284432933423667
1760107201680070400,8.0560703125,-1.4929565845429897,-0.7251116791158914,0.24120693983454256
1760107201690135600,8.066135498046876,-1.3985107066512108,-0.6658464201986789,0.35455490393191574
1760107201700200400,8.076200439453125,-1.2914952700436115,-0.610905161960423,0.5047179198052734
1760107201710265300,8.086265380859375,-1.2585153759837149,-0.5147922276392579,0.5378367839444428
1760107201720330500,8.09633056640625,-1.3191004853278399,-0.38713586180210113,0.5296736434940248
1760107201730396400,8.106396484375,-1.4627631063312292,-0.3407043654948473,0.6428963372439146
1760107201740461300,8.11646142578125,-1.6550445045530795,-0.1871446198552847,0.6753663090202957
1760107201750526500,8.1265263671875,-1.7791811718314885,0.0970034534201026,0.6318029154952615
1760107201760591600,8.136591552734375,-1.8106605982005595,0.3634130409091711,0.6157324359863996
1760107201770656300,8.14665625,-1.721687598761916,0.5088596227198839,0.6068506989378482
1760107201780721400,8.156721435546874,-1.5880612186044454,0.5663441357001662,0.5728890272989868
1760107201790787600,8.16678759765625,-1.3937030141085385,0.594101326675713,0.5531944755414501
1760107201800852500,8.1768525390625,-1.067402437019348,0.5978609714701771,0.5055676685024053
1760107201810917400,8.18691748046875,-0.5292331331849098,0.6787447724774479,0.44145851321797813
1760107201820982500,8.196982421875,0.022046412113308905,0.7069558447003365,0.3338955987954512
1760107201831047400,8.20704736328125,0.552718638190627,0.5912281093269586,0.28702079743379727
1760107201841113600,8.217113525390625,0.9158984548658132,0.42646424810588357,0.32213176697194573
1760107201851178500,8.227178466796875,1.0595803650915623,0.33685090493708847,0.3954394336365163
1760107201861243400,8.237243408203126,1.044904774007201,0.3262009161069989,0.3624146775215864
1760107201871308500,8.24730859375,0.9140268157750367,0.3457695399299264,0.30702015909049657
1760107201881373400,8.25737353515625,0.7669675380706786,0.4206342267781496,0.2699708601672202
1760107201891438600,8.2674384765625,0.682252780598402,0.4780445054784417,0.2526007693018764
1760107201901504500,8.27750439453125,0.6299158596396446,0.4844891515731811,0.17122710241843014
1760107201911569400,8.2875693359375,0.6332704307645559,0.4441904589325189,0.08106614443738944
1760107201921634600,8.297634521484374,0.678112612053752,0.3824757610365748,0.0021280204380629583
1760107201931699500,8.307699462890625,0.670934098726511,0.354470440518856,-0.0911468546126969
1760107201941764400,8.317764404296875,0.5466828651577234,0.3072100921720266,-0.09223512477343901
1760107201951829500,8.32782958984375,0.30795944923460483,0.2675888604015112,0.0006224804215424228
1760107201961895400,8.3378955078125,-0.023738602983951567,0.31270752054452894,0.0848081987762358
1760107201971960600,8.347960693359376,-0.34405367592275143,0.4066828583151102,0.1933929579266347
1760107201982025500,8.358025390625,-0.5208820689469575,0.5042372236162423,0.2734801286634989
1760107201992090400,8.36809033203125,-0.4233002311170101,0.5475616938188672,0.36284769864398986
1760107202002155500,8.378155517578126,-0.11406535511910915,0.4891282095506787,0.4091515865162015
1760107202012220400,8.388220458984375,0.27464053247869014,0.36056758835017677,0.35259653640575706
1760107202022286300,8.398286376953125,0.6540823326468468,0.2073947962015867,0.2635987678520381
1760107202032351500,8.4083515625,0.8900468052506446,0.07868190704882144,0.24457384071806446
1760107202042416600,8.418416748046875,0.9158277277171611,0.0045250762090086934,0.22885014708656817
1760107202052481500,8.4284814453125,0.7594581853538751,0.01995177792161703,0.18071601157989353
1760107202062546400,8.43854638671875,0.5268488683968782,0.07128770514428615,0.12123391330791637
1760107202072612600,8.448612548828125,0.3646504737496376,0.07778262012153864,0.09916201969347893
1760107202082677200,8.45867724609375,0.3615080840706825,0.047100189349055285,0.08446887468611822
1760107202092742400,8.468742431640624,0.4526479061543941,0.009556932896375655,0.0684986498144921
1760107202102807600,8.4788076171875,0.606136340123415,-0.028912790751457213,0.03485957945981063
1760107202112872400,8.48887255859375,0.7676987749546765,-0.06102525432705879,0.035114138742769134
1760107202122937300,8.498937255859374,0.8566355340361594,-0.09618658407926559,0.050989387940475715
1760107202133003500,8.50900341796875,0.8225304353386164,-0.1152133561104536,0.1267175232176203
1760107202143068700,8.519068603515626,0.702424631011486,-0.06262070682495832,0.17801913717873394
1760107202153133300,8.52913330078125,0.6064414605498314,0.002172960124909878,0.1537043052094057
1760107202163198500,8.539198486328125,0.5116629897028208,0.020356851591169834,0.08380151508487761
1760107202173263600,8.549263671875,0.44090076973736286,-0.07008475909531116,0.06630631826883182
1760107202183329300,8.559329345703125,0.4110515749186277,-0.16733721884042024,0.06991393257305026
1760107202193394400,8.56939453125,0.38273441197276115,-0.225755213278532,0.059925531190540636
1760107202203459600,8.57945947265625,0.3948480436146259,-0.2093584974899888,0.012892726255580782
1760107202213524200,8.589524169921875,0.32151626542210576,-0.21906886738240716,-0.015147208917792886
1760107202223589400,8.59958935546875,0.11975099954009055,-0.21457652439922092,0.024794834038615224
1760107202233654800,8.60965478515625,-0.2086544408738613,-0.1933677321538329,0.09293859686767682
1760107202243720700,8.619720703125,-0.6364677655011415,-0.1160889699012041,0.011897285477444529
1760107202253785600,8.62978564453125,-1.0073141712814568,-0.05562047267407179,-0.08227706373026594
1760107202263850800,8.639850830078124,-1.2925503320544958,-0.025528116749227045,-0.2124601715660654
1760107202273915600,8.64991552734375,-1.352905139774084,-0.04252542877942323,-0.3033392968869768
1760107202283980500,8.65998046875,-1.2665642424046992,-0.12568477350324392,-0.362193070660159
1760107202294045700,8.670045654296874,-1.1197212377995251,-0.2529410341069102,-0.29212166423676533
1760107202304111600,8.680111572265625,-0.9339180956810712,-0.3310810893639922,-0.06105983245009556
1760107202314176800,8.6901767578125,-0.6296773747086525,-0.2524666945934296,0.19703354291869327
1760107202324241700,8.70024169921875,-0.3283078252583742,-0.2341951248437166,0.28851839731410145
1760107202334306800,8.710306884765625,-0.14554770409762857,-0.1982154644459486,0.2837039462370798
1760107202344371700,8.720371826171874,-0.04484510389864445,-0.203397543258965,0.32648952379003165
1760107202354436600,8.7304365234375,0.019185177463293075,-0.2811398313701153,0.22739676994048058
1760107202364502800,8.740502685546875,0.05770575451552867,-0.33236732978224753,0.017706428413931278
1760107202374567700,8.750567626953124,0.024942133554816243,-0.30243951676934955,-0.17042143032504245
1760107202384632600,8.760632568359375,-0.17097148368954657,-0.20049919146895406,-0.23740305403955278
1760107202394697700,8.77069775390625,-0.5513076023489236,-0.036927462641894816,-0.14593480371907352
1760107202404762600,8.7807626953125,-1.044412606576085,0.1893523590326309,-0.023311363148363306
1760107202414828800,8.790828857421875,-1.468296775060892,0.4525950069233775,0.043892753343563524
1760107202424893700,8.800893798828126,-1.7259043396741152,0.6815390793710947,-0.005393730536010116
1760107202434958600,8.81095849609375,-1.8006646893650293,0.7815729865282773,-0.09660290066204033
1760107202445023700,8.821023681640625,-1.8999521620690822,0.6824211229026317,-0.18198495380347593
1760107202455088600,8.831088623046876,-1.9282412679642438,0.5292416087523103,-0.26652897608503695
1760107202465153800,8.84115380859375,-1.740402820625901,0.5086097396120429,-0.3470349932884797
1760107202475219700,8.8512197265625,-1.3489280528366565,0.5600970580041408,-0.3785189131695777
1760107202485284900,8.861284912109374,-0.9113789316147566,0.6227677414506674,-0.33886571535822
1760107202495349800,8.871349853515625,-0.4918675713866949,0.6795034818902611,-0.25213658585622906
1760107202505414700,8.88141455078125,-0.14821546200215815,0.7190060557171702,-0.19983616098295895
1760107202515479800,8.891479736328124,0.14150456618666649,0.7361351774334907,-0.25398363849502054
1760107202525545500,8.90154541015625,0.3672042498856783,0.7275897596672177,-0.42887704486865547
1760107202535610600,8.911610595703126,0.5277022703558206,0.6703492845758795,-0.6779429545752704
1760107202545675800,8.92167578125,0.6388911932557821,0.531179883338511,-0.9440093546498566
1760107202555740700,8.93174072265625,0.7723229276239871,0.3697951431617141,-1.0656430991966277
1760107202565805600,8.9418056640625,0.897836143952608,0.24594986004531383,-1.0756639232777059
1760107202575870700,8.95187060546875,0.9883213015198707,0.21961276500076055,-1.0195583705004303
1760107202585937000,8.96193701171875,0.868204975798726,0.21324995197057722,-0.8982526157990097
1760107202596001500,8.97200146484375,0.48317631540894507,0.21496493919491766,-0.7090260751031339
1760107202606066700,8.982066650390625,-0.02693652224242687,0.3149196436360478,-0.5262311748899519
1760107202616131800,8.9921318359375,-0.4933931735187769,0.45352702707648274,-0.4316641548365354
1760107202626196700,9.00219677734375,-0.7010112570822239,0.5221291463986039,-0.31878684045821426
1760107202636261600,9.01226171875,-0.5889356144756078,0.4634431486740708,-0.15119719949299468
1760107202646327800,9.022327880859375,-0.25948271083533764,0.33496173018962144,0.00222732066065073
1760107202656392700,9.032392822265624,0.15625497607290745,0.18495353955179453,0.09215222312980331
1760107202666457600,9.04245751953125,0.5795733273684978,0.10966185946315526,0.02848112133592367
1760107202676522800,9.052522705078125,0.873035464695096,0.03162175744920969,0.016733345598075537
1760107202686588000,9.062587890625,0.9386708431661128,-0.0952820364549756,0.2104453794112429
1760107202696652500,9.072652587890625,0.9195902951210737,-0.08441168287247419,0.2549169555560686
1760107202706718700,9.08271875,0.9067015874534845,-0.01056494089514017,0.14039749086075462
1760107202716783900,9.092783935546874,0.9136369396746158,-0.011336509789526461,0.05340882450658828
1760107202726848500,9.1028486328125,0.9550953237444162,-0.18748130446374414,0.011859903475968166
1760107202736913700,9.11291357421875,0.9983744935005903,-0.3769990831911564,-0.10023739384002983
1760107202746978800,9.122978759765624,0.9591747020125388,-0.527529836398363,-0.3756944303333759
1760107202757043700,9.133043701171875,0.954707785731554,-0.6374038773074746,-0.5715409736908972
1760107202767109600,9.143109619140626,1.0048176782906055,-0.6341480903819203,-0.53945773620978
1760107202777174800,9.1531748046875,0.9957873996168375,-0.5402306202784181,-0.42857638142164795
1760107202787239700,9.16323974609375,0.8908253884077072,-0.4463546512290835,-0.323192016614601
1760107202797304600,9.1733046875,0.7275812840998173,-0.3948854530155658,-0.22298704547313972
1760107202807369700,9.18336962890625,0.4903466454297304,-0.4095183740019798,-0.1756055001657456
1760107202817435600,9.193435546875,0.2511556119948625,-0.46583062833249567,-0.14255524428337812
1760107202827500800,9.203500732421874,0.026952304333448408,-0.4579389982998371,-0.07791772687644698
1760107202837565700,9.213565673828125,-0.14661737915575504,-0.4936889415949583,-0.0897286127120722
1760107202847630800,9.223630859375,-0.17890578382015226,-0.5374523877367376,-0.15980092331776394
1760107202857695700,9.23369580078125,-0.10473580123782157,-0.5924366083338857,-0.18141688985824583
1760107202867760600,9.2437607421875,-0.08025543997585773,-0.6274208279535174,-0.18071515306336805
1760107202877826800,9.253826904296876,-0.03979775738120079,-0.6289785787895321,-0.12333632894726469
1760107202887891700,9.2638916015625,-0.04605798681974411,-0.5939978663012385,-0.12655224965331144
1760107202897956600,9.27395654296875,-0.06976444109976292,-0.595975888375938,-0.16760675649680196
1760107202908021800,9.284021728515626,-0.1760597467392683,-0.6625318888232111,-0.13489039047760887
1760107202918086700,9.294086669921874,-0.30765199072062965,-0.6913049788430333,-0.12295039836959913
1760107202928151600,9.304151611328125,-0.36242052274048325,-0.6384206531345844,-0.11580050834864378
1760107202938217700,9.3142177734375,-0.4121241725862026,-0.5804857660382986,-0.11792615873310715
1760107202948282600,9.32428271484375,-0.5260913280278444,-0.5661109114661812,-0.12886639008088968
1760107202958347800,9.33434765625,-0.7301023270100355,-0.560861320374906,-0.12204467256837524
1760107202968412700,9.34441259765625,-0.9605547581940889,-0.517475767634809,-0.016231104297516865
1760107202978477800,9.354477783203125,-1.0957681152820586,-0.4219748277321458,0.16041236974699422
1760107202988542700,9.364542724609375,-1.1496423288106918,-0.3381841993674636,0.3419062155652791
1760107202998608600,9.374608642578124,-1.0822352644920348,-0.24807810424566268,0.5450370341794565
1760107203008673800,9.384673828125,-0.9116144939363002,-0.26287849075347186,0.7675782173149287
1760107203018738700,9.39473876953125,-0.7250380293577909,-0.37319209212362764,0.8568788412727415
1760107203028803600,9.404803466796874,-0.7039923187196254,-0.4708218607485294,0.9145764124818145
1760107203038868700,9.41486865234375,-0.7289052261799573,-0.5152510773226618,1.0484499723333864
1760107203048933600,9.42493359375,-0.6520856058716774,-0.49286242764294147,1.1501911948651076
1760107203058999800,9.434999755859375,-0.46583062833249567,-0.4200856529846787,1.0750061169560998
1760107203069064700,9.445064697265625,-0.3780868784278631,-0.37921032949984074,0.8425980216596275
1760107203079129600,9.455129638671876,-0.6191735163509845,-0.16190321109294892,0.7296607937876135
1760107203089194800,9.46519482421875,-1.3042460305452346,-0.16424217543452976,0.8593673701528459
1760107203099259600,9.475259765625,-2.032586024057865,-0.1146557222276926,0.862624837578833
1760107203109324800,9.48532470703125,-2.649223884451389,0.19918577078282831,0.6535450108997524
1760107203119390700,9.495390625,-2.8582191015869376,0.5788236780449748,0.43472376160286363
1760107203129455900,9.505455810546875,-2.671031227111816,0.7641986578792334,0.21934174777334556
1760107203139520800,9.515520751953124,-2.2896908998459575,0.706242143473029,0.04671154165791813
1760107203149585700,9.525585693359375,-1.8772569306582212,0.5233005282655357,-0.03922737818129826
1760107203159650800,9.53565087890625,-1.4552145906478167,0.409719449532032,0.007691707563365344
1760107203169716500,9.545716552734374,-0.8953010725170374,0.4765919685825705,-0.060472634546132754
1760107203179781600,9.55578173828125,-0.2874257797718048,0.5732195744276046,-0.18860241744816303
1760107203189846800,9.5658466796875,0.3823176478654146,0.5818678680464625,-0.1439701525826007
1760107203199911700,9.57591162109375,1.0825398003965616,0.48096945301443333,-0.0912240663010627
1760107203209976600,9.5859765625,1.7195710449993609,0.3440440313115716,-0.25726764686806125
1760107203220041700,9.596041748046876,2.144329658231139,0.1557698229044676,-0.3990854985212907
1760107203230108000,9.60610791015625,2.2504285645157096,-0.010952771168947219,-0.37282837337777014
1760107203240172300,9.61617236328125,2.044841109997034,-0.051934185376763344,-0.2717339973822236
1760107203250237200,9.6262373046875,1.6683868012070655,0.06489215888828039,-0.086622746518068
1760107203260302300,9.63630224609375,1.1463292587399483,0.24100363581478595,0.05480880466473754
1760107203270367500,9.646367431640625,0.6513859331697225,0.39900633233785626,0.2009658226000145
1760107203280432000,9.65643212890625,0.30580665511488914,0.4923118080228567,0.20447819636883213
1760107203290498300,9.666498291015625,0.07072071891129017,0.45808805138170716,0.1414666179296095
1760107203300563500,9.6765634765625,-0.014481529816985129,0.4039399893477559,0.07903718675989657
1760107203310628400,9.68662841796875,0.06539280188679694,0.37413814080208535,0.11860827751206234
1760107203320693200,9.696693359375,0.27755963479578494,0.24182781167924403,0.1926050406856462
1760107203330758400,9.70675830078125,0.503736288356781,0.1645873356103897,0.2207552495667711
1760107203340823300,9.7168232421875,0.7319371412217617,0.13710896157622338,0.2830397649736143
1760107203350889500,9.726889404296875,0.8442413318872451,0.10223229398429393,0.3830729962773621
1760107203360954400,9.736954345703126,0.8329068679243326,0.09174480223953724,0.5919929196869954
1760107203371019300,9.747019287109374,0.7791840455651283,0.17062515446990728,0.6761090902116149
1760107203381084400,9.75708447265625,0.7134311781942844,0.28920126501172777,0.6746006584100425
1760107203391149300,9.7671494140625,0.7150257539093494,0.30322131479680536,0.579806295874156
1760107203401214500,9.77721435546875,0.7878250326603651,0.27126374952197074,0.4345620682351291
1760107203411280400,9.7872802734375,0.8871253648459911,0.1310720194995403,0.2411906645531766
1760107203421345300,9.79734521484375,0.9707201783776283,-0.0645034518316388,-0.06515691077169031
1760107203431410400,9.807410400390625,1.0486287629663944,-0.270185306635499,-0.24607850965997202
1760107203441475300,9.817475341796875,1.0134832153052091,-0.39166269157677885,-0.2431768699343316
1760107203451540200,9.827540283203126,0.8964408902019262,-0.3401356256961822,-0.11978009777041151
1760107203461605400,9.83760546875,0.7419768891990184,-0.17702566916197537,0.003129247069591656
1760107203471671300,9.84767138671875,0.6569459053844213,-0.04333002316057682,0.06266428110520356
1760107203481736400,9.857736328125,0.6181167007744311,0.010017828406393528,0.09087728042369708
1760107203491801300,9.86780126953125,0.5595996298760175,-0.043887072521448134,-0.00767701003444381
1760107203501866200,9.8778662109375,0.5132318464547395,-0.12131167298555373,-0.15930771470703184
1760107203511931400,9.887931396484374,0.4167506633430719,-0.21831278831809758,-0.18366149044726043
1760107203521996300,9.897996337890625,0.21174656167030334,-0.2733718277171254,-0.07675002567078917
1760107203532062200,9.908062255859376,-0.06194061560630798,-0.21727701552957296,-0.03544018322620541
1760107203542127400,9.91812744140625,-0.19787293461859226,-0.12660568774044512,-0.05736138892411254
1760107203552192300,9.928192138671875,-0.23131167836189268,-0.10477905585765838,-0.1162225057535339
1760107203562257400,9.93825732421875,-0.20319442190229892,-0.1565031056150794,-0.19161146307103336
1760107203572322300,9.948322265625,-0.1846253305107355,-0.25649405041337014,-0.27606735041141506
1760107203582387500,9.958387451171875,-0.2354676289975643,-0.33531273558437824,-0.3828508779592812
1760107203592453000,9.968453125,-0.36755788562893865,-0.3227978296652436,-0.4664198994625359
1760107203602518300,9.978518310546875,-0.5732125601649284,-0.23861001867651938,-0.3635033495411277
1760107203612583400,9.98858349609375,-0.9178110104888677,-0.09591273557394743,-0.17827296580933033
1760107203622648300,9.9986484375,-1.309062490916252,0.025773031421005725,-0.04503947569327429
1760107203632713200,10.008713134765625,-1.665116401234269,-0.013253157065808771,0.08037745892032981
1760107203642778400,10.0187783203125,-1.9919711050748823,-0.14096709830909968,0.2000983190504834
1760107203652844500,10.028844482421874,-2.261342757239938,-0.3142638100758195,0.2539466309528798
1760107203662909200,10.0389091796875,-2.3163000898301602,-0.4131891714692116,0.14757151980912311
1760107203672974300,10.048974365234375,-2.2303391316890715,-0.4733648232296109,-0.016954020877741276
1760107203683039500,10.05903955078125,-2.0445587859243153,-0.5684717953786254,-0.12036239117039367
1760107203693104400,10.0691044921875,-1.715747687318921,-0.66457625413239,-0.15802225974006578
1760107203703169300,10.079169189453125,-1.2397311805367468,-0.6733759389206767,-0.18059286012426018
1760107203713235500,10.0892353515625,-0.6541483836203813,-0.6013903146401047,-0.2654491997580044
1760107203723300000,10.099300048828125,-0.17756839773654937,-0.46571840012967586,-0.3213116827607155
1760107203733365200,10.109365234375,0.007437456524372101,-0.31234482471197844,-0.2859292576037347
1760107203743430400,10.119430419921875,-0.06805354552865028,-0.08311638236492871,-0.23996749770008027
1760107203753495300,10.129495361328125,-0.3466594745069742,0.20928543225377796,-0.210304710565228
1760107203763560200,10.139560302734376,-0.6327899537712335,0.5281178654193878,-0.14235952078187838
1760107203773626400,10.14962646484375,-0.6984054584980011,0.8301920560076832,0.07825426535443403
1760107203783691500,10.15969140625,-0.5010293674856424,1.0842521572723984,0.3436453143175691
1760107203793756200,10.169756103515626,-0.18361819929480552,1.2359770887002348,0.4457377979723736
1760107203803821300,10.1798212890625,0.12997019573748111,1.1546312231391667,0.45492944122031326
1760107203813886500,10.189886474609375,0.39114743553102016,0.9254279152333735,0.3122591191899031
1760107203823951400,10.199951416015624,0.5777063644528388,0.7395034848228097,0.07552445223147515
1760107203834017300,10.210017333984375,0.5934416937232018,0.5985273264244199,-0.07108721413612365
1760107203844082400,10.22008251953125,0.5934697507739066,0.544691691340506,-0.127159814491868
1760107203854147300,10.230147216796874,0.5930412962287664,0.6160436938926577,-0.07604140704397577
1760107203864212200,10.240212158203125,0.5941495497316122,0.741351158516109,0.07632717888252809
1760107203874277400,10.25027734375,0.6086889472156762,0.8021288678228855,0.19228402857035398
1760107203884342500,10.260342529296874,0.6712187608867883,0.8216828785985708,0.21688600691799073
1760107203894408200,10.270408203125,0.7213105332672596,0.7917997815102338,0.21619248996218665
1760107203904473300,10.280473388671876,0.7177040332078933,0.7074982810139656,0.2058896340693347
1760107203914538500,10.29053857421875,0.5349328061312437,0.6028913668528199,0.14153667835798114
1760107203924603100,10.30060302734375,0.33512861118912696,0.5093482830196618,0.020549999543093143
1760107203934668300,10.310668212890626,0.08523732004165649,0.45588498837947844,-0.1376317798739299
1760107203944733400,10.3207333984375,-0.14329086508154867,0.37727322395741936,-0.24192341754082589
1760107203954799400,10.33079931640625,-0.4070587058901787,0.18734014242738484,-0.047815918136667454
1760107203964864300,10.3408642578125,-0.6701461632192135,0.24561580578535794,0.2761408905716613
1760107203974929400,10.350929443359375,-0.7256207976818084,0.5181263404980302,0.37259781602490694
1760107203984994300,10.360994384765625,-0.5228513231933116,0.7224968204423785,0.40520072999857365
1760107203995059200,10.37105908203125,-0.10905249539315699,0.6621016807124018,0.46125404113195834
1760107204005124400,10.381124267578125,0.3500701597332954,0.42136517140120267,0.4474744490392506
1760107204015190300,10.391190185546876,0.7562509137451648,0.2387520574957132,0.3132511259019375
1760107204025255400,10.40125537109375,1.0907470722496508,0.10773176818341017,0.19236947836410254
1760107204035320300,10.4113203125,1.3630652992606163,-0.030141455763578413,0.24637957496577872
1760107204045385500,10.421385498046876,1.6177420711189507,0.009352642495930194,0.3077906685389578
1760107204055450400,10.431450439453124,1.7202976057082413,-0.03357143021225929,0.3116534814469516
1760107204065515300,10.441515380859375,1.542171574088931,-0.1871001961916685,0.29039851197227834
1760107204075581400,10.45158154296875,1.2593430589795112,-0.24880086556226014,0.10606195354135707
1760107204085646300,10.461646240234375,0.8896557601064443,-0.33043139328360555,-0.09424899447965435
1760107204095711200,10.471711181640625,0.7079787580072879,-0.3985857688382268,-0.30093134069610383
1760107204105776400,10.4817763671875,0.7432201672583818,-0.4250397682607174,-0.4798066928453743
1760107204115841300,10.49184130859375,0.7967512664377688,-0.5773991981998086,-0.4604826914332807
1760107204125906200,10.50190625,0.7721370496630668,-0.7986097537860274,-0.464423318817839
1760107204135972400,10.511972412109374,0.5940484274446964,-0.9300696035593747,-0.6702708855774253
1760107204146037200,10.522037353515625,0.1995475898325443,-1.0593781205177306,-0.8174209833703935
1760107204156102400,10.532102294921875,-0.24956395888924598,-1.213089549587667,-0.614805165073648
1760107204166167300,10.542167236328124,-0.640519671240449,-1.225650340475142,-0.17514263189435003
1760107204176232400,10.552232421875,-0.7272101126998662,-0.8883905624762177,0.19744627017173916
1760107204186297300,10.56229736328125,-0.5669879865616559,-0.36743688959777354,0.40640035157930104
1760107204196363300,10.57236328125,-0.2798994759202003,-0.14470365448892117,0.5237243431681767
1760107204206428400,10.582428466796875,0.03647767304778099,-0.29840631573051213,0.48298583433814346
1760107204216493300,10.592493408203126,0.12894962051808834,-0.5285810990169644,0.23902038957569746
1760107204226558500,10.602558349609374,0.0013788871377706526,-0.8114037689074873,-0.0388412603739649
1760107204236623400,10.612623291015625,-0.2820171987265348,-0.9683265612393617,-0.22658852229751644
1760107204246688300,10.622688232421876,-0.5978606792092322,-0.9833397137150168,-0.347038208158873
1760107204256754400,10.63275439453125,-0.8505413088142871,-0.8810676722422242,-0.2791520550863817
1760107204266819300,10.6428193359375,-1.003591351366043,-0.746250328734517,-0.17778295380268244
1760107204276884200,10.65288427734375,-0.9403992743939161,-0.6374994466364383,-0.08405921617299318
1760107204286949400,10.662949462890625,-0.7460095057159661,-0.5546314860746264,0.09330476329894735
1760107204297014300,10.67301416015625,-0.5260504114955663,-0.42733606250435113,0.3359598013162613
1760107204307079400,10.683079345703124,-0.38012919791042804,-0.29665917980223894,0.5828778488066048
1760107204317145300,10.693145263671875,-0.4406926799446344,-0.19215134210139512,0.7742647824067622
1760107204327210500,10.70321044921875,-0.7418126385480165,-0.11565993083417415,0.9094583388157188
1760107204337275400,10.713275390625,-1.1179115580290555,-0.007564590035378933,0.86630922518
1760107204347340300,10.72334033203125,-1.3607932626754045,0.04519903190284967,0.7267686525426804
1760107204357405400,10.733405517578126,-1.3247633333951234,0.10505641149431466,0.6512117456465959
1760107204367470300,10.74347021484375,-0.9944698872774839,0.06655600044727325,0.5977022007118911
1760107204377536300,10.753536376953125,-0.6080336981773377,-0.13460896145403384,0.4076951040975749
1760107204387601400,10.763601318359376,-0.43218554836213585,-0.34021687423884867,0.03658126356970751
1760107204397666300,10.773666259765625,-0.5022369897097348,-0.34669162321090696,-0.1736971457937732
1760107204407731200,10.783731201171875,-0.8035562702775001,-0.013541910879313945,-0.1827144736544229
1760107204417796400,10.79379638671875,-1.228509529298544,0.4158823560759425,0.1045364975397475
1760107204427861200,10.803861328125,-1.558469797939062,0.7629565488636493,0.6268691854201257
1760107204437927200,10.81392724609375,-1.53005092818439,1.0560849241912365,1.0528187620021403
1760107204447992300,10.823992431640624,-1.2227478970319032,1.3361901518166064,1.2553554506480693
1760107204458057500,10.834057373046875,-0.7341109781295061,1.563292980311811,1.293883334223926
1760107204468122400,10.844122314453125,-0.32560499604046345,1.4996189650416374,1.1852837702300398
1760107204478187300,10.854187255859374,-0.15712591368854045,1.3071712703421712,1.057667517207563
1760107204488252400,10.86425244140625,-0.3345733153939247,0.9928834948688745,0.898158069383353
1760107204498318300,10.874318359375,-0.5613531955450773,0.7811091684088111,0.6301112360812723
1760107204508383200,10.88438330078125,-0.6487585072755814,0.6776888336837291,0.2923873477019369
1760107204518448400,10.894448486328125,-0.4658996019154787,0.6021271044820546,-0.009731120419502257
1760107204528513500,10.904513427734376,-0.032578327521681785,0.47223172754645343,-0.3120091264842078
1760107204538578200,10.914578125,0.44747547195255755,0.2521788175627589,-0.4762787013823166
1760107204548643300,10.924643310546875,0.842495949524641,0.05175590620040893,-0.47981557027157395
1760107204558709500,10.93470947265625,1.0236007046937943,-0.027844869258999823,-0.38006135683860626
1760107204568774100,10.944774169921875,0.9597048633664846,-0.002022153477370739,-0.19761720629185436
1760107204578839300,10.95483935546875,0.6107604927927255,0.15427461591064928,-0.0139388925739564
1760107204588904400,10.964904541015626,0.12841302942335606,0.33655104520767926,0.09192998608071357
1760107204598969300,10.97496923828125,-0.39098552296757694,0.3858145500704646,0.14088942082985303
1760107204609034200,10.9850341796875,-0.8635539351224899,0.2666545021608472,0.02280045905073639
1760107204619100400,10.995100341796874,-1.1936591651916504,0.11620616654008627,-0.19288086195234208
1760107204629165300,11.005165283203125,-1.2787141144037246,-0.021086627170443534,-0.42911520100608463
1760107204639230200,11.015230224609375,-0.9948644395530223,-0.11702245135903358,-0.5969190144449472
1760107204649295400,11.02529541015625,-0.3538666294068098,-0.10606500401496886,-0.5030373097745702
1760107204659360500,11.035360595703125,0.38427228906452654,-0.07089870582669973,-0.247915680225566
1760107204669425200,11.045425048828125,0.9873913271933793,-0.06835720465034247,0.038638239481998606
1760107204679490300,11.055490234375,1.2488608279317617,-0.015364742392301558,0.23829291555136442
1760107204689556500,11.065556396484375,1.1788286758065223,0.05142009837478399,0.30861188526134936
1760107204699621400,11.075621337890626,0.8443149816453457,0.014171733215451239,0.2714732092878781
1760107204709686300,11.085686279296874,0.4813444238066673,-0.0685647099211812,0.13807520365933887
1760107204719751400,11.09575146484375,0.20007365953326225,-0.13482348098754882,0.008357320448802783
1760107204729816300,11.10581640625,0.0744487995237112,-0.1803527677580714,-0.00011527867643162607
1760107204739881200,11.115881103515624,0.15149346075952053,-0.16997282804101704,0.05308118172110989
1760107204749947400,11.125947509765625,0.2865577647656202,-0.1912912181407213,0.06238340920405462
1760107204760012300,11.13601220703125,0.49513563327193255,-0.24370325016230343,0.08771856066444889
1760107204770077200,11.1460771484375,0.6376502532839775,-0.2763873761460185,0.07901026222035289
1760107204780142300,11.156142333984375,0.7299941904604434,-0.2545510996520519,0.05125363750038668
1760107204790207500,11.16620751953125,0.7669079168379306,-0.21543986323028802,0.058648570057284084
1760107204800272100,11.176272216796875,0.7252718381136656,-0.23020430164188146,0.09632667753654532
1760107204810338300,11.18633837890625,0.6158464177548885,-0.23010668648630378,0.17932620118930934
1760107204820403500,11.196403564453124,0.4942512516528368,-0.20957564737200735,0.25329434105660764
1760107204830468400,11.20646826171875,0.39554771631658076,-0.16128507919460533,0.22238997462913393
1760107204840533200,11.216533203125,0.34440029740333555,-0.18152035023272037,0.10372675205944105
1760107204850598400,11.226598388671874,0.38739305143356323,-0.26338965514600277,-0.0025536939376499504
1760107204860663300,11.236663330078125,0.43019875845909117,-0.39662119076699015,-0.09588018501121551
1760107204870729500,11.2467294921875,0.4405944802671671,-0.5415855420187116,-0.20124387235641478
1760107204880794400,11.25679443359375,0.4329653005629778,-0.586686081983149,-0.24704403022387994
1760107204890859300,11.266859375,0.3963426660865545,-0.5286082792848348,-0.2651667112885043
1760107204900924400,11.27692431640625,0.21349720472991465,-0.5083975581660867,-0.24930918041057884
1760107204910989300,11.2869892578125,-0.0652419952392578,-0.4361147045046091,-0.1278510481590405
1760107204921054500,11.297054443359375,-0.3918856866776943,-0.2661424609854817,-0.03738007894733455
1760107204931120400,11.307120361328124,-0.6739192520171403,-0.11056845291405916,0.12128552476414478
1760107204941185300,11.317185302734375,-1.076341530278325,-0.05248451273590326,0.2143690191283822
1760107204951250400,11.32725048828125,-1.5395464862823485,0.03708849842250347,0.2272293774843216
1760107204961315300,11.3373154296875,-1.8713374774813651,0.025886720928549763,0.3061533496607095
1760107204971380200,11.347380126953125,-1.9376333656877278,0.05256722258329391,0.4937148797538131
1760107204981445400,11.3574453125,-1.8248463599413631,0.05180909769237041,0.6243099293913692
1760107204991510300,11.36751025390625,-1.6099690990298985,0.017136135978996752,0.7254876728214323
1760107205001576400,11.377576416015625,-1.4653367562115192,0.010265957948565482,0.791326757171005
1760107205011641300,11.387641357421876,-1.4588918178558348,-0.03280073810070753,0.7010572881810366
1760107205021706200,11.397706298828124,-1.3470318638265133,-0.1488692497357726,0.21785660551581532
1760107205031771400,11.407771484375,-0.944739349424839,-0.3357452817827463,-0.24003625208735466
1760107205041836300,11.417836181640626,-0.22108137624859808,-0.39270372506231066,-0.3359319269286468
1760107205051901400,11.4279013671875,0.4129810816764831,-0.259073545512557,-0.13000128499548882
1760107205061967400,11.43796728515625,0.6687351273775101,-0.059601651264727114,0.03351801039143465
1760107205072032300,11.4480322265625,0.5548480514347552,0.15212620570510624,0.026241731211566366
1760107205082097400,11.458097412109375,0.07552782693207263,0.37400750015974044,-0.11906562935812398
1760107205092162300,11.468162353515625,-0.5772896003454924,0.4587351171135902,-0.31999091901835053
1760107205102227200,11.478227294921876,-1.1972644962072372,0.455887618727982,-0.5197267979646101
1760107205112292400,11.488292236328125,-1.6871616443037987,0.43397126273512837,-0.6588854220796376
1760107205122358300,11.498358154296875,-1.9161358196288345,0.4160942452609539,-0.6781139272280037
1760107205132423400,11.50842333984375,-1.7987170624285935,0.4591150563418865,-0.6328370077833533
1760107205142488300,11.51848828125,-1.3065297575682402,0.563220450721681,-0.4133332195824012
1760107205152553200,11.52855322265625,-0.5887807161748408,0.7080939088195561,0.01105914501971565
1760107205162618400,11.538618408203124,0.06090834994912147,0.8405033144026994,0.46131826547458765
1760107205172683300,11.548683349609375,0.6038841772824526,0.9809235924839973,0.7271929423693567
1760107205182749200,11.558749267578126,0.9917711497128009,0.997628935830295,0.7090339661486447
1760107205192814300,11.568814453125,1.3270365390241146,0.834217073740065,0.3919308409936726
1760107205202879500,11.57887939453125,1.4266776474714278,0.522832033970952,-0.027607991763204335
1760107205212944400,11.5889443359375,1.2372773576438427,0.19562544795274733,-0.39631844496075064
1760107205223009300,11.59900927734375,0.8945780189394951,-0.01033405474871397,-0.6865642871219665
1760107205233074400,11.609074462890625,0.5818447794318199,-0.0796875769600272,-0.8808960420023649
1760107205243140900,11.619140869140624,0.34371640679240223,-0.0517833787292242,-0.8667856835853308
1760107205253206000,11.6292060546875,0.10305004010796547,0.03970715648829937,-0.6717919576648622
1760107205263271000,11.63927099609375,-0.16471476138234137,0.1553919295027852,-0.3912492154050618
1760107205273335800,11.649335693359374,-0.436670584821701,0.2631383107334375,-0.18781630857177078
1760107205283401000,11.65940087890625,-0.7112222699731588,0.2830497566446662,-0.060875854185316707
1760107205293465900,11.6694658203125,-0.8961281709909439,0.30977643552869555,0.06422908273651264
1760107205303531000,11.679531005859374,-0.9474036001980304,0.32378333357125516,0.13620807634689844
1760107205313597000,11.689596923828125,-0.8527940561771392,0.2846998619392514,0.10351667123902589
1760107205323662000,11.699662109375,-0.5871048919171095,0.17336393178403375,-0.005254689674789551
1760107205333727000,11.70972705078125,-0.18238018193244934,0.013704407964646816,-0.1504640994454734
1760107205343791900,11.7197919921875,0.18916706559360028,-0.06112666887491941,-0.2033699976649135
1760107205353857000,11.72985693359375,0.5102981310904026,-0.06412409712523222,-0.20273515209378673
1760107205363922000,11.739921875,0.7341121471732854,-0.0968941478267312,-0.13310817410279996
1760107205373987800,11.74998779296875,0.8601935187786817,-0.13948124366551637,-0.01613906949935481
1760107205384053000,11.760052978515626,0.9475649282395839,-0.12057722123116255,0.01164648905415088
1760107205394118100,11.7701181640625,1.0645283428877592,-0.16578998939841985,-0.08174361444069073
1760107205404182800,11.780182861328125,1.1477671825885771,-0.2570622056901455,-0.2144386502984911
1760107205414248000,11.790248046875,1.260460664832592,-0.3568105739042163,-0.3147382226545363
1760107205424313000,11.80031298828125,1.3517127151191233,-0.43849283181279897,-0.38720783105976875
1760107205434378800,11.810378662109375,1.3638374526768922,-0.5252990086063742,-0.4945161496667191
1760107205444444000,11.82044384765625,1.2885703225076197,-0.6230398363903165,-0.5516872493162751
1760107205454509000,11.830509033203125,1.203178688687086,-0.6653644819006324,-0.4939834675621241
1760107205464574000,11.840573974609375,1.0652835451692342,-0.5873413310214877,-0.349751156911999
1760107205474638800,11.850638916015624,0.913300839588046,-0.471753296379745,-0.19961798818763343
1760107205484704000,11.8607041015625,0.7689210102260112,-0.39645898594260215,-0.06448865612130612
1760107205494769000,11.870768798828125,0.7281471012890338,-0.3622466274783015,0.025805810312600805
1760107205504834800,11.880834716796874,0.6753343795120715,-0.42725101456940173,0.06279078442854806
1760107205514900000,11.89089990234375,0.6018956338137388,-0.5123799058005214,0.03545046715820208
1760107205524965000,11.900965087890626,0.5041945535182952,-0.5371399607867002,-0.04131873813709244
1760107205535030000,11.911030029296874,0.34612229889035223,-0.5738622562453151,-0.12013762423750013
1760107205545095000,11.921094970703125,0.14288696045577526,-0.5956085163682698,-0.26926148805515837
1760107205555160000,11.93116015625,-0.08428630292713642,-0.6602645284131169,-0.44445648945756255
1760107205565225700,11.941225830078125,-0.24102175599336623,-0.6604436843723058,-0.5005179108321667
1760107205575291000,11.951290771484375,-0.3292226020157337,-0.550954551127553,-0.39705728062931445
1760107205585356000,11.96135595703125,-0.41407063047885895,-0.40461628117412324,-0.22595387765578925
1760107205595421000,11.9714208984375,-0.6072977851182222,-0.2492313659340143,-0.04495772939368616
1760107205605485800,11.98148583984375,-0.7980576728612184,-0.12857903364002704,0.02453958976906724
1760107205615551000,11.991551025390624,-0.9260890094906091,-0.10589753849357365,0.09501023377627134
1760107205625617200,12.0016171875,-1.040949314379692,-0.1104857430666685,0.14565397748369724
1760107205635681800,12.011681884765625,-1.2212170342028141,-0.1910392892062664,0.0972213796202559
1760107205645747000,12.021746826171874,-1.39612468829751,-0.21816227393150328,0.06577339870221913
1760107205655812000,12.03181201171875,-1.5058441231667994,-0.3307876593753695,0.03626083369301632
1760107205665877000,12.041876953125,-1.3959446555554866,-0.4060781704202294,0.02620451817344874
1760107205675942000,12.05194189453125,-1.1451999624490736,-0.5507815326482057,0.21178815405601634
1760107205686007000,12.062007080078125,-0.9762941791176796,-0.5442495005309581,0.4464113498523831
1760107205696073000,12.072072998046876,-0.7526058352410793,-0.39552696578949686,0.41587395357377827
1760107205706137900,12.082137939453125,-0.6797790839612483,-0.21204554461687802,0.30153582766158504
1760107205716203000,12.092203125,-0.7606225529581307,-0.03823591489195823,0.13105563462032005
1760107205726268200,12.10226806640625,-0.8780120840638875,0.15127689539939165,0.04906102282693609
1760107205736332800,12.112332763671875,-1.0251531948328017,0.3144228000298142,0.09712191043430939
1760107205746398000,12.12239794921875,-1.1950737081646918,0.4188756926730275,0.16127954450296236
1760107205756464000,12.132464111328124,-1.372017836523056,0.5564326902776956,0.15750959751019253
1760107205766528800,12.14252880859375,-1.4290911383539437,0.7053682832479476,0.12630356298871337
1760107205776594000,12.152593994140625,-1.3796096068263053,0.8088920783475041,0.1050562470975332
1760107205786659000,12.1626591796875,-1.2215186474978923,0.8240069376319646,0.08330607798444106
1760107205796724000,12.172723876953125,-0.9512281269222498,0.7216618309229612,0.19758690248513594
1760107205806788900,12.182788818359375,-0.5877367600798606,0.6381587873280048,0.3162194011230022
1760107205816855000,12.19285498046875,-0.14387889410257337,0.6183282976984977,0.33025804601069536
1760107205826920000,12.202919921875,0.2982598929971456,0.6021385026589036,0.29941487171854825
1760107205836984800,12.21298486328125,0.6380220092058181,0.5773235026150941,0.3243126181423664
1760107205847050000,12.223050048828124,0.8318944760113954,0.5970590074375272,0.4018229241285473
1760107205857115100,12.233115234375,0.8889835599333047,0.6435661993294954,0.46360783771649
1760107205867179800,12.2431796875,0.8175684290170669,0.6952753437787293,0.5303564015937968
1760107205877245000,12.253244873046874,0.6989759518623352,0.7265054715618491,0.607536525777541
1760107205887311000,12.26331103515625,0.5641267519116401,0.7573451387226581,0.6439617014531046
1760107205897376000,12.2733759765625,0.5157423679709434,0.7179419336169958,0.6077445790376513
1760107205907441000,12.28344091796875,0.4398796099960804,0.6318520883992313,0.48400261016525326
1760107205917506000,12.293506103515625,0.31523323962986466,0.5422045506998896,0.26162301079966127
1760107205927571000,12.303571044921876,0.13759060761332512,0.49828883660584683,0.07055369178131222
1760107205937635800,12.3136357421875,-0.03901274448335171,0.48005964469313617,-0.07477580298837273
1760107205947702000,12.323701904296875,-0.16259586953222752,0.45530075875073667,-0.023155323203280568
1760107205957767000,12.333766845703124,-0.18472177662253378,0.4512561595350504,0.17555413530468938
1760107205967831800,12.343831787109375,-0.09398761273026465,0.4321019617319107,0.3714016285102814
1760107205977897000,12.35389697265625,0.1014016883790493,0.4183177665293216,0.4975245011698454
1760107205987962000,12.363962158203124,0.43686639965474605,0.3495163252428174,0.49243495947849003
1760107205998026800,12.37402685546875,0.785035109680891,0.15429273608922958,0.3385112028321251
1760107206008093000,12.384093017578126,1.031564815440774,-0.07542348977476358,0.15820994606558234
1760107206018158000,12.394157958984374,1.0704513031959533,-0.2537853759765625,0.09274356748592108
1760107206028223000,12.404222900390625,0.9899293212383985,-0.2841059876993298,0.05833221585080027
1760107206038288000,12.414287841796876,0.8167226258426904,-0.2408776713475585,0.07699968958292155
1760107206048353000,12.42435302734375,0.5400812749356031,-0.17237667431235312,0.15958598365914076
1760107206058418000,12.43441796875,0.22538462640047072,-0.1302098497122526,0.2295856582868844
1760107206068482800,12.44448291015625,-0.020243746605515478,-0.13942980573922395,0.23571232447363435
1760107206078549000,12.454549072265625,-0.13184943361282347,-0.13216273734569547,0.13708587296158076
1760107206088614000,12.46461376953125,-0.06082476331889629,-0.196290049341321,0.05658102480191737
1760107206098679000,12.474678955078126,0.14954466477930545,-0.28526918625980613,0.009422931253165005
1760107206108744000,12.484743896484375,0.3663923489809036,-0.32654782984852787,-0.020792174268513916
1760107206118809000,12.49480908203125,0.5496715255796909,-0.385987276288867,-0.06592179419696331
1760107206128874000,12.5048740234375,0.6740314802199602,-0.43342619607299565,-0.10533668974041938
1760107206138940000,12.51493994140625,0.7165683071762323,-0.44020957260280846,-0.14673815599121154
1760107206149005000,12.525005126953126,0.7090776591598987,-0.4178706072837114,-0.20646621011458335
1760107206159070000,12.535070068359374,0.6176841545760631,-0.4295680593401193,-0.15134996063560247
1760107206169134800,12.545134765625,0.46373453283607957,-0.37199119190126656,-0.043649464373290536
