time,seconds_elapsed,z,y,x
1760107193698367000,0.074366943359375,0.06112579256296158,0.006636958569288254,0.5997388958930969
1760107193708432000,0.084431884765625,0.05890394002199173,0.027630433440208435,0.7223482728004456
1760107193718497000,0.0944970703125,0.0450509749352932,-0.0073184967041015625,0.8593322038650513
1760107193728563000,0.10456298828125,0.02005721628665924,-0.0480993278324604,0.9763357639312744
1760107193738627800,0.1146279296875,0.0076940241269767284,-0.0814807191491127,1.0546742677688599
1760107193748693000,0.12469287109375,0.029564891010522842,-0.10009662806987762,1.0964053869247437
1760107193758758100,0.134758056640625,0.09144530445337296,-0.12486056238412857,1.0934306383132935
1760107193768822800,0.14482275390625,0.1473383903503418,-0.16000911593437195,1.0498743057250977
1760107193778889000,0.154888916015625,0.11953072249889374,-0.13571523129940033,0.8892763257026672
1760107193788954000,0.1649541015625,0.013124912977218628,-0.07027619332075119,0.5937562584877014
1760107193799018800,0.175018798828125,-0.04787905141711235,0.01291456539183855,0.24224324524402618
1760107193809084000,0.185083984375,-0.024854455143213272,0.1173667460680008,-0.1138472929596901
1760107193819150000,0.195150146484375,0.021386010572314262,0.17306223511695862,-0.4307677447795868
1760107193829215000,0.205215087890625,0.05240023136138916,0.1688658595085144,-0.6637051105499268
1760107193839279900,0.21527978515625,0.0678071528673172,0.1296289712190628,-0.7800756692886353
1760107193849345000,0.225344970703125,0.05738762766122818,0.09301735460758209,-0.7713435292243958
1760107193859410000,0.235409912109375,0.015443641692399979,0.0750356912612915,-0.6807105541229248
1760107193869475800,0.245475830078125,-0.036881934851408005,0.05167165771126747,-0.5517463684082031
1760107193879541000,0.255541015625,-0.07447511702775955,0.034718506038188934,-0.4028542935848236
1760107193889606000,0.26560595703125,-0.09451251477003098,0.04253614693880081,-0.2593752145767212
1760107193899670800,0.2756708984375,-0.10852553695440292,0.03830678015947342,-0.1380847543478012
1760107193909737000,0.285737060546875,-0.12186582386493683,0.016469702124595642,-0.06745047867298126
1760107193919801900,0.2958017578125,-0.13642452657222748,-0.012560085393488407,-0.05264996364712715
1760107193929867000,0.305866943359375,-0.13446561992168427,-0.017006736248731613,-0.08410266786813736
1760107193939932000,0.315931884765625,-0.10538043826818466,-0.029288969933986664,-0.12291478365659714
1760107193949997000,0.3259970703125,-0.068111352622509,-0.018510201945900917,-0.15539386868476868
1760107193960063000,0.33606298828125,-0.0359819121658802,0.014964667148888111,-0.15378105640411377
1760107193970128100,0.346128173828125,-0.01093495823442936,0.04960983991622925,-0.12191572785377502
1760107193980193000,0.356193115234375,-0.00654393807053566,0.0646902546286583,-0.08548475056886673
1760107193990258000,0.3662578125,-0.032276276499032974,0.07269264757633209,-0.07342179864645004
1760107194000324000,0.376323974609375,-0.06958690285682678,0.0628938153386116,-0.09571218490600586
1760107194010388700,0.386388671875,-0.09167566150426865,0.027704576030373573,-0.14054514467716217
1760107194020454000,0.396453857421875,-0.09758627414703369,-0.002266104333102703,-0.19454260170459747
1760107194030519000,0.40651904296875,-0.08928266912698746,-0.03391442447900772,-0.2424752414226532
1760107194040584000,0.416583984375,-0.06886447966098785,-0.07443175464868546,-0.26380130648612976
1760107194050649900,0.42664990234375,-0.034481070935726166,-0.1100051999092102,-0.26242390275001526
1760107194060715000,0.436715087890625,-0.011493461206555367,-0.12071297317743301,-0.2525955140590668
1760107194070780200,0.4467802734375,0.0008591548539698124,-0.10650964826345444,-0.2523047924041748
1760107194080844800,0.4568447265625,0.0005278573371469975,-0.0616481676697731,-0.26449650526046753
1760107194090911000,0.466910888671875,0.0005178232677280903,-0.019620517268776894,-0.2919042408466339
1760107194100975900,0.476975830078125,0.01765579730272293,-0.0017853276804089546,-0.32561373710632324
1760107194111041000,0.487041015625,0.05054226890206337,-0.009620138444006443,-0.333539217710495
1760107194121106000,0.49710595703125,0.08159685134887695,-0.04019961878657341,-0.3039485514163971
1760107194131171000,0.507171142578125,0.1025993749499321,-0.07231637090444565,-0.24414938688278198
1760107194141237000,0.517237060546875,0.10771823674440384,-0.09512554854154587,-0.1577705442905426
1760107194151302000,0.527302001953125,0.09240871667861938,-0.09790587425231934,-0.06465195119380951
1760107194161367000,0.537366943359375,0.065931037068367,-0.08956858515739441,0.01250834297388792
1760107194171432000,0.547431884765625,0.04377870634198189,-0.06784936785697937,0.06793831288814545
1760107194181498000,0.557498046875,0.03055610880255699,-0.0209732037037611,0.09354593604803085
1760107194191563000,0.56756298828125,0.00859336368739605,0.03667399659752846,0.08786050230264664
1760107194201628000,0.5776279296875,-0.037946972995996475,0.06793684512376785,0.03161639720201492
1760107194211693000,0.587693115234375,-0.058442194014787674,0.05466151982545853,-0.060251105576753616
1760107194221758000,0.597758056640625,-0.03699496015906334,0.04527413845062256,-0.13492774963378906
1760107194231823600,0.60782373046875,-0.0024760167580097914,0.027515605092048645,-0.18344762921333313
1760107194241888800,0.617888671875,0.01575944572687149,0.0007756063714623451,-0.1988913118839264
1760107194251953700,0.62795361328125,0.007229531183838844,-0.0181921124458313,-0.17773503065109253
1760107194262018600,0.6380185546875,-0.027136432006955147,-0.01166523713618517,-0.14421167969703674
1760107194272083700,0.648083740234375,-0.04762993007898331,0.007052641361951828,-0.10632706433534622
1760107194282150000,0.65814990234375,-0.059661827981472015,0.0212709903717041,-0.07659100741147995
1760107194292214500,0.668214599609375,-0.061692431569099426,0.04418495297431946,-0.04990976303815842
1760107194302279700,0.67827978515625,-0.05100516229867935,0.0610337108373642,-0.03216059133410454
1760107194312344800,0.6883447265625,-0.025086740031838417,0.05623004585504532,-0.011889337562024593
1760107194322410800,0.69841064453125,0.010363662615418434,0.03915838524699211,0.00790087878704071
1760107194332475600,0.7084755859375,0.049639973789453506,0.027712268754839897,0.023104842752218246
1760107194342540800,0.718540771484375,0.08174411207437515,-0.0039007863961160183,0.035489339381456375
1760107194352605700,0.728605712890625,0.10255282372236252,-0.040204375982284546,0.03696446120738983
1760107194362670600,0.738670654296875,0.10962990671396255,-0.05153479427099228,0.04532625526189804
1760107194372736800,0.74873681640625,0.10874724388122559,-0.024986211210489273,0.04625439643859863
1760107194382801700,0.7588017578125,0.11060906201601028,-0.00030376948416233063,0.042345140129327774
1760107194392866600,0.768866455078125,0.12269683182239532,0.03034259006381035,0.04585111886262894
1760107194402931700,0.778931640625,0.145619198679924,0.06675253063440323,0.04581676423549652
1760107194412997600,0.78899755859375,0.1667672097682953,0.0865379199385643,0.051787279546260834
1760107194423062800,0.799062744140625,0.18176665902137756,0.07106389105319977,0.052194744348526
1760107194433127700,0.809127685546875,0.16529425978660583,0.048661865293979645,0.03629733994603157
1760107194443192800,0.81919287109375,0.14258787035942078,0.03186690807342529,0.020202262327075005
1760107194453257700,0.8292578125,0.13351978361606598,0.02965657040476799,0.020996125414967537
1760107194463323600,0.83932373046875,0.13171282410621643,0.03463934734463692,0.03845687583088875
1760107194473388500,0.849388427734375,0.12583355605602264,0.026520270854234695,0.07129132747650146
1760107194483453700,0.85945361328125,0.12179248034954071,0.018034107983112335,0.12469968944787979
1760107194493518600,0.8695185546875,0.11586423218250275,0.024927053600549698,0.19218648970127106
1760107194503584500,0.87958447265625,0.09580689668655396,0.04281949996948242,0.25289055705070496
1760107194513649700,0.889649658203125,0.0766257494688034,0.05990048497915268,0.2856293320655823
1760107194523714800,0.89971484375,0.0502798892557621,0.059321776032447815,0.28546634316444397
1760107194533779700,0.90977978515625,0.03061411902308464,0.045682817697525024,0.25983279943466187
1760107194543844600,0.9198447265625,0.01178370788693428,0.0168844573199749,0.21060772240161896
1760107194553910800,0.929910888671875,-0.011251607909798622,-0.01570791006088257,0.13245636224746704
1760107194563976000,0.939975830078125,-0.015647422522306442,-0.027662042528390884,0.05720102787017822
1760107194574040600,0.95004052734375,-0.005107334349304438,0.0004161214455962181,0.006477589253336191
1760107194584105700,0.960105712890625,0.013345441780984402,0.0633908286690712,-0.003083425108343363
1760107194594171000,0.9701708984375,0.03413406014442444,0.1374381184577942,0.03034399077296257
1760107194604236500,0.980236572265625,0.04979424178600311,0.19362682104110718,0.09310031682252884
1760107194614301700,0.9903017578125,0.06603487581014633,0.2428823858499527,0.1694321483373642
1760107194624366800,1.000366943359375,0.07866864651441574,0.27531757950782776,0.23341965675354004
1760107194634431500,1.010431396484375,0.08770545572042465,0.27079159021377563,0.2688640058040619
1760107194644497700,1.02049755859375,0.0911417305469513,0.18998943269252777,0.25791922211647034
1760107194654562800,1.030562744140625,0.0849769189953804,0.05505840480327606,0.2207108587026596
1760107194664627700,1.040627685546875,0.08508211374282837,-0.08985617756843567,0.16477355360984802
1760107194674692600,1.050692626953125,0.0941430926322937,-0.21284647285938263,0.1170097142457962
1760107194684757800,1.0607578125,0.1171962171792984,-0.28638166189193726,0.08701879531145096
1760107194694823700,1.07082373046875,0.14465029537677765,-0.2916327118873596,0.07920500636100769
1760107194704888800,1.080888916015625,0.18379583954811096,-0.23941557109355927,0.08783924579620361
1760107194714953700,1.09095361328125,0.215520977973938,-0.12341329455375671,0.10379443317651749
1760107194725018600,1.1010185546875,0.2344331443309784,-0.011396217159926891,0.11958644539117813
1760107194735084800,1.111084716796875,0.2432938814163208,0.08101455867290497,0.12594155967235565
1760107194745149700,1.121149658203125,0.24215005338191986,0.12841962277889252,0.13478751480579376
1760107194755214600,1.131214599609375,0.23083604872226715,0.1268663853406906,0.1323121339082718
1760107194765279700,1.14127978515625,0.21807284653186798,0.11722441017627716,0.13798493146896362
1760107194775344600,1.1513447265625,0.20378252863883972,0.0905708521604538,0.1464230716228485
1760107194785410600,1.16141064453125,0.18821023404598236,0.052537985146045685,0.1389009803533554
1760107194795475700,1.171475830078125,0.18463774025440216,-0.0013762246817350388,0.12420272827148438
1760107194805540900,1.181540771484375,0.19842173159122467,-0.07407093048095703,0.10105133056640625
1760107194815605800,1.191605712890625,0.22250673174858093,-0.11313223838806152,0.10434679687023163
1760107194825670700,1.201670654296875,0.22905677556991577,-0.11642231047153473,0.12394659966230392
1760107194835736800,1.21173681640625,0.21466772258281708,-0.0909837931394577,0.148196280002594
1760107194845801500,1.221801513671875,0.1733626276254654,-0.05343535542488098,0.1617847979068756
1760107194855866600,1.23186669921875,0.11751684546470642,-0.011695818975567818,0.13738949596881866
1760107194865931800,1.241931884765625,0.07012003660202026,-0.00480622099712491,0.0739562064409256
1760107194875997700,1.251997802734375,0.04303694888949394,-0.02478552609682083,-0.0175623781979084
1760107194886062600,1.2620625,0.030951526015996933,-0.04409024864435196,-0.09467900544404984
1760107194896127700,1.272127685546875,0.026677682995796204,-0.03986914083361626,-0.14050427079200745
1760107194906193000,1.28219287109375,0.030128873884677887,-0.030484691262245178,-0.1507401317358017
1760107194916257500,1.292257568359375,0.036368440836668015,-0.009122447110712528,-0.1157655268907547
1760107194926323700,1.30232373046875,0.03584140166640282,0.016366135329008102,-0.06060107424855232
1760107194936388600,1.312388671875,0.023172467947006226,0.036092016845941544,-0.021420668810606003
1760107194946453800,1.322453857421875,0.013853535056114197,0.050057899206876755,-0.0015263240784406662
1760107194956518700,1.3325185546875,0.006122482940554619,0.0646318718791008,0.005155452061444521
1760107194966584600,1.34258447265625,-0.00008481275290250778,0.06294289231300354,-0.005409307777881622
1760107194976649700,1.352649658203125,-0.005747445859014988,0.05075971037149429,-0.02140551060438156
1760107194986714600,1.362714599609375,-0.007280361372977495,0.017243564128875732,-0.029987547546625137
1760107194996779800,1.37277978515625,-0.007932577282190323,-0.01880490407347679,-0.025001822039484978
1760107195006844700,1.3828447265625,-0.0074819703586399555,-0.0482805036008358,-0.01567782834172249
1760107195016910800,1.392910888671875,-0.016353169456124306,-0.06314774602651596,-0.0070421649143099785
1760107195026975700,1.402975830078125,-0.023262208327651024,-0.06407425552606583,-0.011638514697551727
1760107195037040600,1.41304052734375,-0.02755560353398323,-0.054259415715932846,-0.0194162055850029
1760107195047105800,1.423105712890625,-0.03978670388460159,-0.048292603343725204,-0.0343347042798996
1760107195057170700,1.433170654296875,-0.03622138872742653,-0.05347762629389763,-0.04187757149338722
1760107195067236600,1.443236572265625,-0.02726783975958824,-0.054543688893318176,-0.033838286995887756
1760107195077301800,1.4533017578125,-0.014752229675650597,-0.05092255026102066,-0.006854170933365822
1760107195087367000,1.463366943359375,-0.012652060016989708,-0.056672047823667526,0.03226660192012787
1760107195097431600,1.473431640625,-0.034162528812885284,-0.06217702478170395,0.06132916733622551
1760107195107497700,1.483497802734375,-0.062323592603206635,-0.07603131979703903,0.06796044111251831
1760107195117563000,1.49356298828125,-0.09558675438165665,-0.08320432156324387,0.0537324994802475
1760107195127627500,1.50362744140625,-0.11820125579833984,-0.07918055355548859,0.02535918354988098
1760107195137692700,1.513692626953125,-0.12318233400583267,-0.07256559282541275,-0.004339177161455154
1760107195147757800,1.5237578125,-0.12428674846887589,-0.08999065309762955,-0.020410023629665375
1760107195157823700,1.53382373046875,-0.12124016135931015,-0.11322914063930511,-0.014423358254134655
1760107195167888600,1.543888671875,-0.13166457414627075,-0.12874098122119904,0.006639848928898573
1760107195177953800,1.553953857421875,-0.1428486704826355,-0.13705769181251526,0.03985927253961563
1760107195188018700,1.564018798828125,-0.14871695637702942,-0.12640585005283356,0.08506190031766891
1760107195198083600,1.57408349609375,-0.14497603476047516,-0.11803184449672699,0.13014064729213715
1760107195208149800,1.584149658203125,-0.15750807523727417,-0.11346159130334854,0.17126917839050293
1760107195218214700,1.594214599609375,-0.1896274983882904,-0.10810577869415283,0.18801464140415192
1760107195228279800,1.60427978515625,-0.22936265170574188,-0.09063544124364853,0.18536826968193054
1760107195238345000,1.614344970703125,-0.24885621666908264,-0.07579092681407928,0.15578770637512207
1760107195248411000,1.624410888671875,-0.2542911767959595,-0.06717240065336227,0.12132960557937622
1760107195258475800,1.634475830078125,-0.244737446308136,-0.079373799264431,0.09529328346252441
1760107195268541000,1.644541015625,-0.21857589483261108,-0.1296132653951645,0.09586372971534729
1760107195278605800,1.654605712890625,-0.20296630263328552,-0.21037070453166962,0.12363836914300919
1760107195288670700,1.664670654296875,-0.20718209445476532,-0.2856295108795166,0.17399421334266663
1760107195298737000,1.67473681640625,-0.23126918077468872,-0.31316837668418884,0.22761750221252441
1760107195308801800,1.6848017578125,-0.25978177785873413,-0.27691102027893066,0.25590187311172485
1760107195318866700,1.69486669921875,-0.28909990191459656,-0.20101435482501984,0.2463844269514084
1760107195328931800,1.704931884765625,-0.3142324388027191,-0.12833109498023987,0.2011253386735916
1760107195338997000,1.7149970703125,-0.3485608994960785,-0.08855435252189636,0.11383404582738876
1760107195349063000,1.72506298828125,-0.3759815990924835,-0.06962753087282181,-0.0010861516930162907
1760107195359127800,1.7351279296875,-0.38541552424430847,-0.10153619199991226,-0.13755172491073608
1760107195369193000,1.74519287109375,-0.3846581280231476,-0.16309754550457,-0.2689526379108429
1760107195379257900,1.7552578125,-0.3753454387187958,-0.20571953058242798,-0.39602237939834595
1760107195389323800,1.76532373046875,-0.3491249978542328,-0.20851558446884155,-0.4901108145713806
1760107195399388700,1.775388671875,-0.29480308294296265,-0.19503247737884521,-0.5271431803703308
1760107195409453800,1.785453857421875,-0.2275843471288681,-0.16527831554412842,-0.4912123680114746
1760107195419519000,1.79551904296875,-0.16522301733493805,-0.07942583411931992,-0.37243786454200745
1760107195429584000,1.805583984375,-0.1101485937833786,0.05666888877749443,-0.17855681478977203
1760107195439649800,1.81564990234375,-0.08716171234846115,0.17317846417427063,0.05133110284805298
1760107195449715000,1.82571484375,-0.10452739149332047,0.2250957190990448,0.2586209177970886
1760107195459779800,1.83577978515625,-0.14427928626537323,0.2013832926750183,0.4212370216846466
1760107195469844700,1.8458447265625,-0.1924622654914856,0.11500659584999084,0.5133762955665588
1760107195479910000,1.855909912109375,-0.23096056282520294,-0.010638642124831676,0.5297258496284485
1760107195489975800,1.865975830078125,-0.2620393931865692,-0.12278888374567032,0.49362167716026306
1760107195500040700,1.876040771484375,-0.27157098054885864,-0.16643545031547546,0.41708242893218994
1760107195510105900,1.88610595703125,-0.2702830731868744,-0.13376964628696442,0.31216028332710266
1760107195520171000,1.8961708984375,-0.2718878388404846,-0.06261417269706726,0.19539594650268555
1760107195530236700,1.906236572265625,-0.2779712975025177,0.007933764718472958,0.07720937579870224
1760107195540301800,1.9163017578125,-0.2934284210205078,0.060025088489055634,-0.028054989874362946
1760107195550367000,1.926366943359375,-0.30849048495292664,0.09778524935245514,-0.09396156668663025
1760107195560431600,1.936431640625,-0.33256208896636963,0.11299262195825577,-0.11765619367361069
1760107195570496800,1.946496826171875,-0.3576168417930603,0.07849190384149551,-0.11220630258321762
1760107195580563000,1.95656298828125,-0.3734526038169861,0.014422067441046238,-0.09307432174682617
1760107195590627800,1.9666279296875,-0.3850858211517334,-0.05658899247646332,-0.07299994677305222
1760107195600692700,1.976692626953125,-0.38044679164886475,-0.09652586281299591,-0.05922593176364899
1760107195610758000,1.9867578125,-0.3543859124183655,-0.08506254851818085,-0.053498540073633194
1760107195620822800,1.99682275390625,-0.31093260645866394,-0.03228999674320221,-0.04272031411528587
1760107195630889000,2.006888916015625,-0.26420027017593384,0.06128443032503128,-0.026374896988272667
1760107195640953900,2.016953857421875,-0.21019302308559418,0.16207988560199738,-0.00015697407070547342
1760107195651018800,2.027018798828125,-0.15881718695163727,0.20508994162082672,0.020940853282809258
1760107195661084000,2.037083984375,-0.1278419941663742,0.17392702400684357,0.019737519323825836
1760107195671149800,2.04714990234375,-0.11740507930517197,0.09257544577121735,0.0004144211998209357
1760107195681214700,2.057214599609375,-0.1266983151435852,0.035872843116521835,-0.036049582064151764
1760107195691280000,2.06727978515625,-0.15033547580242157,-0.007020827382802963,-0.0916699692606926
1760107195701344800,2.0773447265625,-0.16196809709072113,-0.04825187474489212,-0.15078508853912354
1760107195711410000,2.087409912109375,-0.16311778128147125,-0.04260224848985672,-0.19223666191101074
1760107195721475800,2.097475830078125,-0.16590987145900726,0.045050427317619324,-0.21615053713321686
1760107195731541000,2.107541015625,-0.17113152146339417,0.14673177897930145,-0.2259666919708252
1760107195741605600,2.117605712890625,-0.16181494295597076,0.208867147564888,-0.2214624285697937
1760107195751670800,2.1276708984375,-0.13438892364501953,0.24128954112529755,-0.18800300359725952
1760107195761736000,2.13773583984375,-0.10371310263872147,0.2310430258512497,-0.13421927392482758
1760107195771801900,2.1478017578125,-0.07690785080194473,0.17746128141880035,-0.06543301045894623
1760107195781866800,2.15786669921875,-0.0647582858800888,0.1207953691482544,0.0013299646088853478
1760107195791932000,2.167931884765625,-0.06525017321109772,0.06988745182752609,0.04189150407910347
1760107195801997000,2.1779970703125,-0.07055926322937012,0.06342674046754837,0.03822152316570282
1760107195812061700,2.188061767578125,-0.0815618485212326,0.12722089886665344,-0.01659911312162876
1760107195822127900,2.1981279296875,-0.08775115758180618,0.2418333739042282,-0.1267881989479065
1760107195832193000,2.208193115234375,-0.09237626940011978,0.31691962480545044,-0.2633953392505646
1760107195842257700,2.218257568359375,-0.09874016046524048,0.36013126373291016,-0.38168254494667053
1760107195852322800,2.22832275390625,-0.08496788889169693,0.45158982276916504,-0.4590713381767273
1760107195862388700,2.238388671875,-0.042611900717020035,0.5381024479866028,-0.4636436998844147
1760107195872454000,2.248453857421875,0.04573793709278107,0.5715634822845459,-0.393047571182251
1760107195882518800,2.258518798828125,0.12819500267505646,0.5588759183883667,-0.2689517140388489
1760107195892584000,2.268583984375,0.20096886157989502,0.5637298226356506,-0.1311357021331787
1760107195902648800,2.27864892578125,0.2519061863422394,0.5699948668479919,-0.02056363970041275
1760107195912714800,2.28871484375,0.2789636552333832,0.4777013957500458,0.01915927231311798
1760107195922780000,2.29877978515625,0.29075056314468384,0.2691440284252167,0.0159107968211174
1760107195932844800,2.3088447265625,0.2687520682811737,0.019005298614501953,0.01436643023043871
1760107195942909700,2.31890966796875,0.22276367247104645,-0.17903774976730347,0.07632835954427719
1760107195952974800,2.328974853515625,0.1742645800113678,-0.2862350344657898,0.2064373642206192
1760107195963040800,2.339040771484375,0.13303185999393463,-0.2947878837585449,0.3558945953845978
1760107195973106000,2.34910595703125,0.1005048081278801,-0.26689285039901733,0.45900580286979675
1760107195983170800,2.3591708984375,0.07391561567783356,-0.21879975497722626,0.4670782685279846
1760107195993235700,2.369235595703125,0.09208156913518906,-0.15496431291103363,0.39540380239486694
1760107196003300900,2.37930078125,0.13756024837493896,-0.06560992449522018,0.28981301188468933
1760107196013367000,2.389366943359375,0.20537231862545013,0.03309135511517525,0.17912165820598602
1760107196023431700,2.399431640625,0.2589556574821472,0.11865062266588211,0.08655525743961334
1760107196033496800,2.409496826171875,0.2952614724636078,0.14256712794303894,0.025868210941553116
1760107196043562000,2.41956201171875,0.31678324937820435,0.10141027718782425,0.010266203433275223
1760107196053627000,2.429626953125,0.31730493903160095,0.03908964619040489,0.03451694920659065
1760107196063692800,2.43969287109375,0.29965031147003174,-0.04749770835042,0.07808519899845123
1760107196073758000,2.449758056640625,0.26935845613479614,-0.12159350514411926,0.12158606946468353
1760107196083822800,2.45982275390625,0.2378828525543213,-0.1844220906496048,0.14559081196784973
1760107196093887700,2.4698876953125,0.20430545508861542,-0.21226756274700165,0.1467311829328537
1760107196103954000,2.479953857421875,0.18126428127288818,-0.20960021018981934,0.13600733876228333
1760107196114018800,2.490018798828125,0.17406894266605377,-0.18852156400680542,0.12334266304969788
1760107196124083700,2.500083740234375,0.18132959306240082,-0.15054138004779816,0.11831798404455185
1760107196134148900,2.51014892578125,0.1972358673810959,-0.07717768102884293,0.11099588871002197
1760107196144214000,2.520214111328125,0.21507850289344788,0.006768206134438515,0.09689655900001526
1760107196154280000,2.530280029296875,0.21719518303871155,0.08138598501682281,0.04907897114753723
1760107196164344800,2.5403447265625,0.22386933863162994,0.10661958158016205,-0.036407146602869034
1760107196174410000,2.550409912109375,0.24015723168849945,0.08596303313970566,-0.11893823742866516
1760107196184475000,2.560474853515625,0.26523396372795105,0.04328034445643425,-0.15885713696479797
1760107196194539800,2.570539794921875,0.30242130160331726,0.018090039491653442,-0.1363622099161148
1760107196204605700,2.580605712890625,0.3477914333343506,0.03390296548604965,-0.04637450724840164
1760107196214670800,2.5906708984375,0.3867332339286804,0.07089853286743164,0.09682126343250275
1760107196224735700,2.60073583984375,0.4053933620452881,0.12033893913030624,0.23911938071250916
1760107196234800600,2.610800537109375,0.3973194658756256,0.16037452220916748,0.368839293718338
1760107196244865500,2.620865478515625,0.36363351345062256,0.1369062066078186,0.4321883022785187
1760107196254931700,2.630931640625,0.33315762877464294,0.05105096101760864,0.4310540556907654
1760107196264996600,2.64099658203125,0.3147616386413574,-0.023273566737771034,0.3601110875606537
1760107196275061500,2.6510615234375,0.29029837250709534,-0.06666578352451324,0.25658681988716125
1760107196285126700,2.661126708984375,0.26201948523521423,-0.07327012717723846,0.13597196340560913
1760107196295192600,2.671192626953125,0.23353110253810883,-0.053071651607751846,0.021356429904699326
1760107196305257500,2.681257568359375,0.18869023025035858,-0.0223606638610363,-0.08191272616386414
1760107196315322600,2.691322509765625,0.15025602281093597,0.014041018672287464,-0.16317589581012726
1760107196325387500,2.701387451171875,0.12796834111213684,0.03967548534274101,-0.21296809613704681
1760107196335452700,2.71145263671875,0.1209208220243454,0.04087870195508003,-0.23966042697429657
1760107196345518600,2.7215185546875,0.11830820143222809,0.005317009054124355,-0.2389039844274521
1760107196355583700,2.731583740234375,0.10485710203647614,-0.022257894277572632,-0.21693822741508484
1760107196365648400,2.7416484375,0.07287745922803879,-0.02032807096838951,-0.19105949997901917
1760107196375713500,2.751713623046875,0.038088321685791016,-0.00485670380294323,-0.1683696210384369
1760107196385778700,2.76177880859375,0.01434306986629963,0.02116367220878601,-0.1486973613500595
1760107196395844600,2.7718447265625,0.007597282528877258,0.05326781049370766,-0.13905538618564606
1760107196405909500,2.781909423828125,0.01818200945854187,0.07477770000696182,-0.12965121865272522
1760107196415974700,2.791974609375,0.04749142751097679,0.0787183865904808,-0.13146910071372986
1760107196426039800,2.802039794921875,0.07882411777973175,0.06348218023777008,-0.1416126787662506
1760107196436104400,2.8121044921875,0.10040450841188431,0.045329272747039795,-0.15095292031764984
1760107196446170600,2.822170654296875,0.10305353999137878,0.036359451711177826,-0.1557525247335434
1760107196456235500,2.832235595703125,0.10082021355628967,0.027613099664449692,-0.1519082486629486
1760107196466300400,2.842300537109375,0.1071605309844017,0.016398828476667404,-0.11974260956048965
1760107196476365600,2.852365478515625,0.11825498938560486,0.015288556925952435,-0.07340706884860992
1760107196486430700,2.8624306640625,0.12527737021446228,0.02603893354535103,-0.02200879156589508
1760107196496496600,2.87249658203125,0.11564232409000397,0.021014612168073654,0.009929434396326542
1760107196506561500,2.8825615234375,0.1059093326330185,-0.021932043135166168,0.017857521772384644
1760107196516626700,2.892626708984375,0.09269605576992035,-0.06050393730401993,0.002311584074050188
1760107196526691600,2.902691650390625,0.07806500792503357,-0.06615550816059113,-0.022463608533143997
1760107196536756500,2.912756591796875,0.06712660938501358,-0.051943548023700714,-0.0514766201376915
1760107196546822700,2.92282275390625,0.05814027786254883,-0.053397804498672485,-0.07713544368743896
1760107196556887600,2.932887451171875,0.04754861816763878,-0.07245165854692459,-0.07433406263589859
1760107196566952400,2.942952392578125,0.031618036329746246,-0.08692332357168198,-0.0523381233215332
1760107196577017600,2.953017578125,0.0085955411195755,-0.08135651797056198,-0.012031716294586658
1760107196587082800,2.963082763671875,-0.02608587220311165,-0.08853482455015182,0.01236046478152275
1760107196597148700,2.973148681640625,-0.05848962068557739,-0.1048208549618721,0.029229991137981415
1760107196607213600,2.983213623046875,-0.0797019898891449,-0.11144457757472992,0.03498367965221405
1760107196617278500,2.993278564453125,-0.09853586554527283,-0.10714756697416306,0.03479859232902527
1760107196627343600,3.003343505859375,-0.12645913660526276,-0.13083894550800323,0.021944504231214523
1760107196637409800,3.013409912109375,-0.14777961373329163,-0.16806940734386444,0.0035820105113089085
1760107196647474400,3.023474365234375,-0.1611679494380951,-0.20060989260673523,-0.022819675505161285
1760107196657539600,3.03353955078125,-0.16487640142440796,-0.2001289278268814,-0.029621921479701996
1760107196667604700,3.043604736328125,-0.16542896628379822,-0.17065399885177612,-0.029900921508669853
1760107196677669600,3.053669677734375,-0.16878508031368256,-0.13715170323848724,-0.008057676255702972
1760107196687735600,3.063735595703125,-0.18081332743167877,-0.0942041203379631,0.03214925527572632
1760107196697800700,3.07380078125,-0.1976972222328186,-0.07147297263145447,0.06984017044305801
1760107196707865600,3.083865478515625,-0.2156401425600052,-0.06861476600170135,0.10932925343513489
1760107196717930500,3.093930419921875,-0.22840307652950287,-0.08591199666261673,0.13795025646686554
1760107196727995600,3.10399560546875,-0.23566491901874542,-0.1145172119140625,0.15731975436210632
1760107196738061600,3.1140615234375,-0.23124247789382935,-0.1496909111738205,0.16368205845355988
1760107196748126500,3.12412646484375,-0.2182745486497879,-0.2122347354888916,0.16447314620018005
1760107196758191600,3.134191650390625,-0.21471630036830902,-0.2756568491458893,0.15576568245887756
1760107196768256800,3.1442568359375,-0.22380311787128448,-0.32492101192474365,0.13967357575893402
1760107196778321400,3.1543212890625,-0.2321755588054657,-0.3368556797504425,0.12014566361904144
1760107196788387600,3.1643876953125,-0.24295024573802948,-0.28769803047180176,0.09101056307554245
1760107196798452700,3.17445263671875,-0.2466040998697281,-0.20531314611434937,0.04736508056521416
1760107196808517600,3.184517578125,-0.25064828991889954,-0.13005176186561584,-0.012076481245458126
1760107196818582500,3.19458251953125,-0.258941650390625,-0.09789994359016418,-0.08270750939846039
1760107196828647700,3.204647705078125,-0.2714287340641022,-0.09421627968549728,-0.14716385304927826
1760107196838713600,3.214713623046875,-0.27503064274787903,-0.1032734215259552,-0.209214448928833
1760107196848778500,3.224778564453125,-0.26433098316192627,-0.14464476704597473,-0.26496633887290955
1760107196858843600,3.23484375,-0.23801203072071075,-0.1802685409784317,-0.31414109468460083
1760107196868908500,3.244908447265625,-0.19644609093666077,-0.2056047022342682,-0.35057446360588074
1760107196878973400,3.254973388671875,-0.15765155851840973,-0.21406503021717072,-0.36085107922554016
1760107196889039600,3.26503955078125,-0.12973324954509735,-0.20341856777668,-0.3429325520992279
1760107196899104500,3.2751044921875,-0.11306799203157425,-0.16500140726566315,-0.2755180895328522
1760107196909169700,3.285169677734375,-0.09291088581085205,-0.08699574321508408,-0.16060768067836761
1760107196919234600,3.295234619140625,-0.07944514602422714,0.011187815107405186,-0.02470284514129162
1760107196929299700,3.3052998046875,-0.0689600482583046,0.07283556461334229,0.10378582030534744
1760107196939365600,3.31536572265625,-0.07944704592227936,0.07290160655975342,0.19710750877857208
1760107196949430500,3.325430419921875,-0.09495455026626587,0.012559596449136734,0.2432519793510437
1760107196959495400,3.335495361328125,-0.1058463454246521,-0.05769912153482437,0.26495301723480225
1760107196969560600,3.345560546875,-0.1127014011144638,-0.10522817820310593,0.26591426134109497
1760107196979625500,3.35562548828125,-0.12178198248147964,-0.13062329590320587,0.26587536931037903
1760107196989691400,3.36569140625,-0.12074580788612366,-0.13697734475135803,0.25966209173202515
1760107196999756500,3.375756591796875,-0.10086744278669357,-0.1157066747546196,0.2492949515581131
1760107197009821700,3.38582177734375,-0.07852216064929962,-0.07420480251312256,0.21348293125629425
1760107197019886600,3.395886474609375,-0.07478654384613037,-0.053309906274080276,0.15987135469913483
1760107197029952500,3.405952392578125,-0.0899641290307045,-0.038923464715480804,0.08839967101812363
1760107197040017700,3.416017578125,-0.11572568863630295,-0.02234715037047863,0.01016478706151247
1760107197050082600,3.42608251953125,-0.1570456326007843,-0.008056651800870895,-0.06490796059370041
1760107197060147500,3.4361474609375,-0.1948169767856598,0.0017898529767990112,-0.1420602798461914
1760107197070212600,3.446212646484375,-0.2287488877773285,0.004128692671656609,-0.21586164832115173
1760107197080277800,3.45627783203125,-0.2452343851327896,-0.007408387493342161,-0.2753840982913971
1760107197090343400,3.466343505859375,-0.23910866677761078,-0.0192999430000782,-0.31692633032798767
1760107197100408600,3.47640869140625,-0.20082172751426697,-0.004563340917229652,-0.3127228021621704
1760107197110473700,3.4864736328125,-0.13765275478363037,0.05083880573511124,-0.2607288658618927
1760107197120538400,3.496538330078125,-0.06491117179393768,0.1112361028790474,-0.1761482208967209
1760107197130604500,3.5066044921875,0.0016910294070839882,0.15373855829238892,-0.07424342632293701
1760107197140669700,3.516669677734375,0.05485465005040169,0.14980028569698334,0.011586260981857777
1760107197150734600,3.526734619140625,0.09143379330635071,0.10533659160137177,0.05929511785507202
1760107197160799500,3.536799560546875,0.09781233221292496,0.023017484694719315,0.056495606899261475
1760107197170864600,3.54686474609375,0.07545656710863113,-0.06312574446201324,0.014811012893915176
1760107197180930600,3.5569306640625,0.0458667166531086,-0.11211725324392319,-0.041577696800231934
1760107197190995700,3.56699560546875,0.02629258669912815,-0.11829838901758194,-0.09111706912517548
1760107197201060600,3.577060546875,0.019471433013677597,-0.08264212310314178,-0.11431986093521118
1760107197211125500,3.58712548828125,0.02241337113082409,-0.01989339292049408,-0.11228130757808685
1760107197221190700,3.597190673828125,0.04372797906398773,0.04468719661235809,-0.09404797852039337
1760107197231256000,3.607256103515625,0.06005677953362465,0.08550354093313217,-0.07042276114225388
1760107197241321000,3.617321044921875,0.059077005833387375,0.10199569910764694,-0.04933292046189308
1760107197251386000,3.62738623046875,0.044406142085790634,0.0896305963397026,-0.04331080615520477
1760107197261451000,3.637450927734375,0.01965445652604103,0.06677242368459702,-0.045121755450963974
1760107197271516200,3.64751611328125,-0.017198752611875534,0.04029271751642227,-0.0565623864531517
1760107197281582000,3.65758203125,-0.04902166500687599,0.007516126148402691,-0.06824088096618652
1760107197291647200,3.667647216796875,-0.06393229216337204,-0.01081982534378767,-0.0721418708562851
1760107197301712100,3.677712158203125,-0.0659554973244667,-0.00004707183688879013,-0.06857722997665405
1760107197311777000,3.687777099609375,-0.046622831374406815,0.010950696654617786,-0.06044584885239601
1760107197321842200,3.69784228515625,-0.013924275524914265,0.03707550838589668,-0.033754851669073105
1760107197331908000,3.707908203125,0.02277148701250553,0.09081573039293289,-0.0024809634778648615
1760107197341973000,3.717972900390625,0.04122745618224144,0.13178180158138275,0.03500435873866081
1760107197352038100,3.7280380859375,0.04992715269327164,0.13290151953697205,0.06062067672610283
1760107197362103000,3.73810302734375,0.05525533854961395,0.11661095172166824,0.08396008610725403
1760107197372168200,3.748168212890625,0.04922838881611824,0.08735073357820511,0.09213424474000931
1760107197382234000,3.758234130859375,0.03743511065840721,0.04270816221833229,0.08310612291097641
1760107197392299300,3.76829931640625,0.0324864536523819,0.017171084880828857,0.06146904081106186
1760107197402364000,3.778364013671875,0.03694538399577141,0.01093342900276184,0.024411417543888092
1760107197412429000,3.788428955078125,0.049013279378414154,0.018753722310066223,-0.008680903352797031
1760107197422494200,3.798494140625,0.06806367635726929,0.025877412408590317,-0.03578042984008789
1760107197432559900,3.808559814453125,0.09119009971618652,0.029644614085555077,-0.05386927351355553
1760107197442625000,3.818625,0.12875798344612122,0.02648077718913555,-0.04907771572470665
1760107197452690200,3.828690185546875,0.16910207271575928,0.021071724593639374,-0.012086941860616207
1760107197462755000,3.838755126953125,0.20025520026683807,0.02194683998823166,0.04181516915559769
1760107197472820000,3.848820068359375,0.21830418705940247,0.03115147165954113,0.09129687398672104
1760107197482886100,3.85888623046875,0.22580765187740326,0.033287860453128815,0.12719443440437317
1760107197492951000,3.868950927734375,0.2244035005569458,0.019321415573358536,0.12752307951450348
1760107197503016000,3.879015869140625,0.20010802149772644,0.0024801166728138924,0.09854389727115631
1760107197513081000,3.8890810546875,0.17566536366939545,0.017898619174957275,0.05031847953796387
1760107197523146200,3.899146240234375,0.16004538536071777,0.05433359369635582,0.0043648360297083855
1760107197533212200,3.909212158203125,0.15744736790657043,0.07298023253679276,-0.0411868654191494
1760107197543277000,3.919277099609375,0.15140411257743835,0.056965313851833344,-0.08719430863857269
1760107197553342200,3.92934228515625,0.13938580453395844,0.03271324187517166,-0.12153257429599762
1760107197563407000,3.939406982421875,0.1362597793340683,0.03167514130473137,-0.14026685059070587
1760107197573472000,3.949471923828125,0.12838318943977356,0.04405387490987778,-0.14937466382980347
1760107197583538200,3.9595380859375,0.12737785279750824,0.08368410170078278,-0.1419236660003662
1760107197593603000,3.96960302734375,0.14119994640350342,0.14270178973674774,-0.1276453286409378
1760107197603668000,3.97966796875,0.16427330672740936,0.20196829736232758,-0.09028037637472153
1760107197613733000,3.989733154296875,0.18739143013954163,0.22155888378620148,-0.06732898205518723
1760107197623798000,3.999798095703125,0.19731169939041138,0.1836431920528412,-0.06788824498653412
1760107197633864200,4.0098642578125,0.2124127298593521,0.10017117857933044,-0.08624494075775146
1760107197643929000,4.01992919921875,0.25555697083473206,0.02336188405752182,-0.07983311265707016
1760107197653994000,4.029993896484375,0.31479230523109436,-0.0021571358665823936,-0.019326768815517426
1760107197664059100,4.04005908203125,0.3673036992549896,0.034507133066654205,0.09678971767425537
1760107197674124000,4.0501240234375,0.39661625027656555,0.09231396019458771,0.23292852938175201
1760107197684190000,4.06018994140625,0.3837611675262451,0.1112021654844284,0.3517257571220398
1760107197694255000,4.070255126953125,0.3416782319545746,0.10170043259859085,0.4145141839981079
1760107197704320300,4.0803203125,0.2874267101287842,0.08891858905553818,0.4001424312591553
1760107197714385200,4.09038525390625,0.24964551627635956,0.06216740608215332,0.32094669342041016
1760107197724450000,4.100449951171875,0.22175531089305878,0.011538580060005188,0.19670169055461884
1760107197734516200,4.11051611328125,0.22090770304203033,-0.0388898104429245,0.04721540957689285
1760107197744580900,4.120580810546875,0.24110858142375946,-0.06305639445781708,-0.07726872712373734
1760107197754646000,4.13064599609375,0.2663533389568329,-0.0684748962521553,-0.15904134511947632
1760107197764711200,4.140711181640625,0.292829692363739,-0.056921571493148804,-0.18844635784626007
1760107197774776000,4.150776123046875,0.31088685989379883,-0.03516750782728195,-0.17685896158218384
1760107197784842000,4.160842041015625,0.3016994893550873,-0.04326964542269707,-0.15141618251800537
1760107197794907100,4.1709072265625,0.2723176181316376,-0.04819132760167122,-0.1315096765756607
1760107197804972300,4.18097216796875,0.23146788775920868,-0.029929231852293015,-0.12291990220546722
1760107197815037000,4.191036865234375,0.19505658745765686,0.01242032554000616,-0.11950848996639252
1760107197825102000,4.20110205078125,0.17089958488941193,0.059469856321811676,-0.11542533338069916
1760107197835168000,4.21116796875,0.15174487233161926,0.08885151892900467,-0.10448700934648514
1760107197845233000,4.22123291015625,0.144331693649292,0.09336744248867035,-0.07905808091163635
1760107197855298000,4.231298095703125,0.16536326706409454,0.09035514295101166,-0.05164475739002228
1760107197865363200,4.24136328125,0.17811395227909088,0.06475097686052322,-0.02639159932732582
1760107197875427800,4.251427734375,0.1892244517803192,0.013987195678055286,-0.00903350580483675
1760107197885494000,4.261493896484375,0.18846385180950165,-0.041887786239385605,-0.0019335183314979076
1760107197895559200,4.27155908203125,0.1864810585975647,-0.07485254853963852,0.011450317688286304
1760107197905624000,4.2816240234375,0.18492576479911804,-0.07818309962749481,0.03225865960121155
1760107197915689000,4.29168896484375,0.185967355966568,-0.06566094607114792,0.06359343975782394
1760107197925754000,4.301754150390625,0.18452206254005432,-0.05669408291578293,0.09862466156482697
1760107197935820000,4.311820068359375,0.18178412318229675,-0.05177173763513565,0.1365756243467331
1760107197945885200,4.32188525390625,0.16627360880374908,-0.036517951637506485,0.16978390514850616
1760107197955950000,4.3319501953125,0.1410839855670929,-0.029729483649134636,0.191961407661438
1760107197966015000,4.342014892578125,0.10001111030578613,0.003541387617588043,0.18968386948108673
1760107197976080100,4.352080078125,0.0611620731651783,0.021708741784095764,0.15906676650047302
1760107197986146000,4.36214599609375,0.03594379872083664,0.015891864895820618,0.11756779998540878
1760107197996211000,4.3722109375,0.02689269185066223,0.0034436779096722603,0.07692618668079376
1760107198006276000,4.382276123046875,0.029517240822315216,-0.02180122584104538,0.056872058659791946
1760107198016341000,4.392341064453125,0.03428242355585098,-0.05214995518326759,0.07135031372308731
1760107198026406100,4.40240625,0.028768880292773247,-0.0784476026892662,0.1124761775135994
1760107198036472000,4.41247216796875,0.006926100701093674,-0.10981273651123047,0.16630998253822327
1760107198046537200,4.422537109375,-0.022908760234713554,-0.13979940116405487,0.21314460039138794
1760107198056602000,4.43260205078125,-0.06364669650793076,-0.16472357511520386,0.23218947649002075
1760107198066667000,4.4426669921875,-0.1002127006649971,-0.17174099385738373,0.2250221073627472
1760107198076732200,4.452732177734375,-0.123519666492939,-0.14642278850078583,0.19709846377372742
1760107198086798000,4.462798095703125,-0.13672229647636414,-0.11927798390388489,0.1499495804309845
1760107198096863000,4.472863037109375,-0.14786192774772644,-0.11607680469751358,0.08610453456640244
1760107198106928000,4.48292822265625,-0.15056024491786957,-0.12610892951488495,0.033643726259469986
1760107198116993300,4.4929931640625,-0.14816641807556152,-0.12749730050563812,0.026184260845184326
1760107198127058000,4.503057861328125,-0.14724789559841156,-0.1067933440208435,0.06651836633682251
1760107198137124000,4.5131240234375,-0.15797749161720276,-0.07706325501203537,0.1476963758468628
1760107198147189200,4.523189208984375,-0.17467178404331207,-0.033883024007081985,0.23448985815048218
1760107198157254000,4.53325390625,-0.19185136258602142,-0.000528283417224884,0.3037734627723694
1760107198167319000,4.543319091796875,-0.21112333238124847,0.015522056259214878,0.3313310742378235
1760107198177384200,4.55338427734375,-0.2266421765089035,-0.012529893778264523,0.32243672013282776
1760107198187450000,4.5634501953125,-0.25713351368904114,-0.08026180416345596,0.27439144253730774
1760107198197515000,4.573514892578125,-0.29056939482688904,-0.14013929665088654,0.21926607191562653
1760107198207580200,4.583580078125,-0.31279534101486206,-0.1573965847492218,0.16707849502563477
1760107198217645000,4.59364501953125,-0.33590954542160034,-0.12072908133268356,0.12907946109771729
1760107198227710000,4.6037099609375,-0.3638535737991333,-0.057341318577528,0.08977120369672775
1760107198237777000,4.61377685546875,-0.4026351869106293,-0.009941883385181427,0.03035961277782917
1760107198247842000,4.623842041015625,-0.45396068692207336,0.003765407018363476,-0.06761807948350906
1760107198257907000,4.633906982421875,-0.5012965202331543,-0.01935015618801117,-0.20404568314552307
1760107198267972000,4.64397216796875,-0.5158386826515198,-0.037306252866983414,-0.3477373421192169
1760107198278037000,4.654037109375,-0.5071748495101929,-0.040339816361665726,-0.4691261649131775
1760107198288103000,4.66410302734375,-0.4802672863006592,-0.044499676674604416,-0.5356631278991699
1760107198298168000,4.67416796875,-0.4248223602771759,-0.07401042431592941,-0.545006513595581
1760107198308233000,4.68423291015625,-0.3562749922275543,-0.0935276672244072,-0.48229703307151794
1760107198318297900,4.6942978515625,-0.2745136618614197,-0.05631587654352188,-0.3433963358402252
1760107198328363000,4.704363037109375,-0.1977488398551941,0.04124370217323303,-0.1303682178258896
1760107198338429000,4.714428955078125,-0.16298754513263702,0.12321463972330093,0.10202556848526001
1760107198348494000,4.724494140625,-0.17326974868774414,0.11376015096902847,0.29478970170021057
1760107198358559000,4.73455908203125,-0.20852486789226532,0.018823720514774323,0.41469627618789673
1760107198368623900,4.744623779296875,-0.2310405671596527,-0.08359186351299286,0.44770270586013794
1760107198378689000,4.75468896484375,-0.2381099909543991,-0.1474795639514923,0.4238310754299164
1760107198388754000,4.76475390625,-0.23452776670455933,-0.1792055368423462,0.36424097418785095
1760107198398819800,4.77481982421875,-0.21698662638664246,-0.18888066709041595,0.2989937365055084
1760107198408885000,4.784885009765625,-0.19658786058425903,-0.18310852348804474,0.23981723189353943
1760107198418950000,4.794949951171875,-0.18429571390151978,-0.18053533136844635,0.17257551848888397
1760107198429015000,4.80501513671875,-0.18976131081581116,-0.18410663306713104,0.09904935956001282
1760107198439080000,4.815079833984375,-0.213326096534729,-0.16897088289260864,0.01801881566643715
1760107198449146000,4.82514599609375,-0.2547968327999115,-0.1547679901123047,-0.06970836967229843
1760107198459210800,4.835210693359375,-0.3053300380706787,-0.1534968614578247,-0.16535794734954834
1760107198469276000,4.84527587890625,-0.35535484552383423,-0.15428604185581207,-0.23581790924072266
1760107198479341000,4.855341064453125,-0.3927934169769287,-0.12518562376499176,-0.28687813878059387
1760107198489406000,4.865406005859375,-0.39935198426246643,-0.0628434270620346,-0.310288667678833
1760107198499472000,4.875471923828125,-0.3815385103225708,-0.003189356066286564,-0.3029865622520447
1760107198509537000,4.885537109375,-0.3429868519306183,0.040087275207042694,-0.2736377418041229
1760107198519602200,4.895602294921875,-0.29134663939476013,0.08034130930900574,-0.22181496024131775
1760107198529666800,4.905666748046875,-0.227431058883667,0.09136573225259781,-0.1552436649799347
1760107198539732000,4.91573193359375,-0.17038826644420624,0.09164177626371384,-0.08792079240083694
1760107198549798000,4.9257978515625,-0.12368973344564438,0.0984533429145813,-0.025346357375383377
1760107198559862800,4.93586279296875,-0.10002030432224274,0.09680304676294327,0.010349996387958527
1760107198569928000,4.945927978515625,-0.09172828495502472,0.08503826707601547,0.015687238425016403
1760107198579993000,4.9559931640625,-0.08641532808542252,0.059240568429231644,0.004004896618425846
1760107198590057700,4.9660576171875,-0.08799751102924347,0.005399440415203571,-0.02397480607032776
1760107198600124000,4.9761240234375,-0.09100433439016342,-0.0325273722410202,-0.03744558244943619
1760107198610189000,4.98618896484375,-0.10120344161987305,-0.03848512843251228,-0.04978267475962639
1760107198620254000,4.99625390625,-0.11138183623552322,-0.025845911353826523,-0.049779314547777176
1760107198630318800,5.00631884765625,-0.11701362580060959,-0.004837832413613796,-0.04914867505431175
1760107198640384000,5.016384033203125,-0.10753969848155975,0.013704814948141575,-0.05164887383580208
1760107198650450000,5.026449951171875,-0.09844926744699478,0.02063169702887535,-0.04876014217734337
1760107198660515000,5.03651513671875,-0.09458896517753601,0.024338698014616966,-0.04601912200450897
1760107198670580000,5.046580078125,-0.08753771334886551,0.02730892412364483,-0.033578164875507355
1760107198680644900,5.056644775390625,-0.0722404271364212,0.027563029900193214,-0.00977732241153717
1760107198690710000,5.0667099609375,-0.04961767420172691,0.01725473254919052,0.028775395825505257
1760107198700776000,5.07677587890625,-0.020033705979585648,0.019862249493598938,0.06937739253044128
1760107198710840800,5.0868408203125,0.00961313396692276,0.03204274922609329,0.11279357224702835
1760107198720906000,5.096906005859375,0.02752666547894478,0.03558821231126785,0.14213475584983826
1760107198730971000,5.106970947265625,0.03391372412443161,0.03271599858999252,0.15895049273967743
1760107198741036000,5.1170361328125,0.03137798234820366,0.03578600287437439,0.1566268503665924
1760107198751102000,5.12710205078125,0.020830534398555756,0.04927145689725876,0.14439228177070618
1760107198761167000,5.1371669921875,0.014345666393637657,0.044743284583091736,0.1230354830622673
1760107198771232000,5.14723193359375,0.020402494817972183,0.010130180045962334,0.10330519080162048
1760107198781297000,5.157296875,0.033121999353170395,-0.016682839021086693,0.09775403141975403
1760107198791362000,5.167362060546875,0.03536464646458626,0.006908773444592953,0.10625510662794113
1760107198801427000,5.177427001953125,0.033223509788513184,0.07839150726795197,0.12368346005678177
1760107198811492900,5.187492919921875,0.026663077995181084,0.16577035188674927,0.11407823860645294
1760107198821558000,5.19755810546875,0.028230443596839905,0.21005038917064667,0.07867889106273651
1760107198831623000,5.207622802734375,0.03191998973488808,0.20386067032814026,0.03890165314078331
1760107198841687800,5.217687744140625,0.04415559396147728,0.17598508298397064,0.0014128207694739103
1760107198851753000,5.2277529296875,0.055625561624765396,0.12351228296756744,-0.017554212361574173
1760107198861819100,5.237819091796875,0.0654047504067421,0.07119906693696976,-0.003261683974415064
1760107198871883800,5.2478837890625,0.06757043302059174,0.04172852262854576,0.03611208498477936
1760107198881949000,5.257948974609375,0.06865087896585464,0.017634369432926178,0.09361506253480911
1760107198892014000,5.26801416015625,0.07616658508777618,0.015364824794232845,0.14053410291671753
1760107198902079000,5.278078857421875,0.09102687984704971,0.009137725457549095,0.16953641176223755
1760107198912145000,5.288144775390625,0.10757922381162643,-0.02018873766064644,0.1698213815689087
1760107198922210000,5.2982099609375,0.1272410750389099,-0.01425148081034422,0.15397579967975616
1760107198932275000,5.30827490234375,0.14305412769317627,0.028048835694789886,0.12685470283031464
1760107198942339800,5.31833984375,0.14044801890850067,0.07186147570610046,0.08125647157430649
1760107198952405000,5.328405029296875,0.12279551476240158,0.07152591645717621,0.007193160243332386
1760107198962471000,5.338470947265625,0.10747471451759338,0.03019874542951584,-0.07097122073173523
1760107198972535800,5.348535888671875,0.13002663850784302,0.009549128822982311,-0.15622805058956146
1760107198982601000,5.35860107421875,0.11874867975711823,-0.008189389482140541,-0.19605882465839386
1760107198992666000,5.368666015625,0.11796384304761887,0.010461526922881603,-0.20486855506896973
1760107199002730800,5.378730712890625,0.14264485239982605,0.05340869352221489,-0.17073954641819
1760107199012797000,5.388796875,0.18988853693008423,0.09942945092916489,-0.10946048051118851
1760107199022862000,5.398862060546875,0.22269345819950104,0.14725200831890106,-0.05274878069758415
1760107199032927000,5.408927001953125,0.22491054236888885,0.1626376211643219,-0.00857333093881607
1760107199042991900,5.418991943359375,0.20831961929798126,0.1604061871767044,0.0381694994866848
1760107199053057000,5.42905712890625,0.19267381727695465,0.15237249433994293,0.08889739215373993
1760107199063122000,5.439121826171875,0.18794140219688416,0.15743573009967804,0.13986288011074066
1760107199073188000,5.44918798828125,0.19267037510871887,0.16136549413204193,0.19212102890014648
1760107199083253000,5.4592529296875,0.20849385857582092,0.13959532976150513,0.22033515572547913
1760107199093318000,5.46931787109375,0.22563928365707397,0.11951802670955658,0.22836138308048248
1760107199103383000,5.479383056640625,0.2324618697166443,0.09371324628591537,0.2125495821237564
1760107199113448000,5.489447998046875,0.22568970918655396,0.0987362340092659,0.1529083549976349
1760107199123513900,5.499513916015625,0.2118465006351471,0.0980842337012291,0.07010647654533386
1760107199133579000,5.5095791015625,0.1951519399881363,0.08238010853528976,-0.029110927134752274
1760107199143644000,5.519643798828125,0.1737593710422516,0.05133087933063507,-0.1160731315612793
1760107199153709000,5.529708984375,0.15388712286949158,0.029872989282011986,-0.16829557716846466
1760107199163774000,5.53977392578125,0.13305304944515228,0.004445978440344334,-0.18818172812461853
1760107199173840100,5.549840087890625,0.10068178921937943,-0.034510742872953415,-0.18552549183368683
1760107199183904800,5.55990478515625,0.08245866745710373,-0.07448208332061768,-0.17335574328899384
1760107199193970000,5.569969970703125,0.07464202493429184,-0.07354757934808731,-0.15266750752925873
1760107199204035000,5.58003515625,0.0487605519592762,-0.07680612802505493,-0.11830275505781174
1760107199214100000,5.590099853515625,0.02113531529903412,-0.0339561328291893,-0.08090584725141525
1760107199224166000,5.600165771484375,0.003921058028936386,0.0639268308877945,-0.060762472450733185
1760107199234230500,5.61023046875,-0.00046010827645659447,0.1431579887866974,-0.08259133994579315
1760107199244295700,5.620295654296875,0.02140500769019127,0.18573623895645142,-0.13639244437217712
1760107199254360600,5.630360595703125,0.054294247180223465,0.19317977130413055,-0.19016779959201813
1760107199264425500,5.640425537109375,0.07573853433132172,0.19898012280464172,-0.2358700931072235
1760107199274491600,5.65049169921875,0.09033212065696716,0.17996755242347717,-0.256119966506958
1760107199284556500,5.660556640625,0.09974793344736099,0.14060254395008087,-0.24224607646465302
1760107199294621700,5.67062158203125,0.11264535039663315,0.09358150511980057,-0.20537514984607697
1760107199304686600,5.6806865234375,0.10646199434995651,0.03953678160905838,-0.15010422468185425
1760107199314751700,5.690751708984375,0.10587023943662643,-0.012072350829839706,-0.08768372237682343
1760107199324816600,5.700816650390625,0.11006730794906616,-0.03602631390094757,-0.03180249035358429
1760107199334882800,5.7108828125,0.11991807073354721,-0.04486534744501114,0.011924749240279198
1760107199344947500,5.720947509765625,0.12523701786994934,-0.04517386853694916,0.0404268279671669
1760107199355012600,5.7310126953125,0.12246227264404297,-0.05188396945595741,0.04465299844741821
1760107199365077800,5.741077880859375,0.11868861317634583,-0.05697523057460785,0.04948248714208603
1760107199375142700,5.751142578125,0.1144041195511818,-0.05356558412313461,0.05496886745095253
1760107199385208600,5.76120849609375,0.10722847282886505,-0.04051998257637024,0.06362301111221313
1760107199395273700,5.771273681640625,0.09682536125183105,-0.04348275065422058,0.07411772757768631
1760107199405338600,5.781338623046875,0.0831771269440651,-0.05988212674856186,0.0870799869298935
1760107199415403500,5.791403564453125,0.07766705006361008,-0.07490769028663635,0.10145120322704315
1760107199425468700,5.80146875,0.07004345953464508,-0.08453662693500519,0.11981817334890366
1760107199435534600,5.81153466796875,0.06408703327178955,-0.09227896481752396,0.14089682698249817
1760107199445599500,5.821599609375,0.054240066558122635,-0.10075803101062775,0.17428715527057648
1760107199455664600,5.83166455078125,0.04071493819355965,-0.10497648268938065,0.20722779631614685
1760107199465729800,5.841729736328125,0.005500619765371084,-0.11075520515441895,0.21753768622875214
1760107199475794400,5.85179443359375,-0.036247093230485916,-0.12464439123868942,0.2093774974346161
1760107199485859600,5.861859619140625,-0.0834384337067604,-0.13519510626792908,0.17890293896198273
1760107199495925800,5.87192578125,-0.12454139441251755,-0.1391509771347046,0.13712966442108154
1760107199505990400,5.881990478515625,-0.1607501208782196,-0.13864529132843018,0.08770114928483963
1760107199516055600,5.8920556640625,-0.18934102356433868,-0.13855686783790588,0.050501853227615356
1760107199526120700,5.90212060546875,-0.2084234058856964,-0.13793928921222687,0.032623205333948135
1760107199536185600,5.912185546875,-0.21972745656967163,-0.1190958321094513,0.046451669186353683
1760107199546251500,5.92225146484375,-0.22070737183094025,-0.0734931230545044,0.09041965007781982
1760107199556316700,5.932316650390625,-0.21387024223804474,-0.011819637380540371,0.1534167379140854
1760107199566381600,5.942381591796875,-0.21970407664775848,0.0633264109492302,0.22411847114562988
1760107199576446500,5.952446533203125,-0.2405683547258377,0.10666802525520325,0.27317818999290466
1760107199586511600,5.96251171875,-0.27901020646095276,0.09524628520011902,0.2869388461112976
1760107199596577500,5.97257763671875,-0.30946585536003113,0.050630614161491394,0.2595016360282898
1760107199606642700,5.982642578125,-0.32885006070137024,-0.0040498776361346245,0.20774918794631958
1760107199616707600,5.99270751953125,-0.339775949716568,-0.02360706776380539,0.13218039274215698
1760107199626772700,6.002772705078125,-0.3388528823852539,-0.020431365817785263,0.03582623973488808
1760107199636837600,6.012837646484375,-0.3507212698459625,-0.01343417540192604,-0.09315251559019089
1760107199646903600,6.022903564453125,-0.37399542331695557,-0.0375128798186779,-0.2649439871311188
1760107199656968700,6.03296875,-0.4211333692073822,-0.056431178003549576,-0.4602793753147125
1760107199667033600,6.04303369140625,-0.45363849401474,-0.0641055703163147,-0.6236870884895325
1760107199677098500,6.053098388671875,-0.4471515715122223,-0.027970464900135994,-0.6856657862663269
1760107199687163600,6.06316357421875,-0.3979107439517975,0.05761854723095894,-0.6323549747467041
1760107199697228500,6.073228515625,-0.32687386870384216,0.1608160436153412,-0.48290613293647766
1760107199707294700,6.083294677734375,-0.2856987416744232,0.2246258556842804,-0.31860750913619995
1760107199717359600,6.093359619140625,-0.2694491744041443,0.21954293549060822,-0.1698731780052185
1760107199727424500,6.103424560546875,-0.25872939825057983,0.20556163787841797,-0.044051505625247955
1760107199737489700,6.11348974609375,-0.2588231563568115,0.1636781096458435,0.06024720147252083
1760107199747554600,6.123554443359375,-0.2600189745426178,0.10761865973472595,0.1448541134595871
1760107199757620500,6.133620361328125,-0.24041570723056793,0.06945902109146118,0.2077433317899704
1760107199767685600,6.143685546875,-0.19003726541996002,0.05325965955853462,0.2629971504211426
1760107199777750800,6.153750732421875,-0.13614420592784882,0.03749267756938934,0.3129021227359772
1760107199787815700,6.163815673828125,-0.09836164861917496,0.017653733491897583,0.3540232479572296
1760107199797880600,6.173880615234375,-0.08924511820077896,-0.0038941684179008007,0.38052383065223694
1760107199807946800,6.18394677734375,-0.09533192217350006,-0.03753183037042618,0.3804447054862976
1760107199818011600,6.19401171875,-0.11276444047689438,-0.09568248689174652,0.35421496629714966
1760107199828076500,6.20407666015625,-0.14134889841079712,-0.15378864109516144,0.293723464012146
1760107199838141700,6.2141416015625,-0.17961372435092926,-0.20127999782562256,0.21222834289073944
1760107199848206600,6.22420654296875,-0.21764343976974487,-0.22922281920909882,0.12234047800302505
1760107199858272500,6.2342724609375,-0.25006234645843506,-0.23362796008586884,0.03945251926779747
1760107199868337700,6.244337646484375,-0.27912411093711853,-0.2234119474887848,-0.030878659337759018
1760107199878402800,6.25440283203125,-0.30791714787483215,-0.19415633380413055,-0.09343232214450836
1760107199888467500,6.264467529296875,-0.33228644728660583,-0.1470065414905548,-0.1456521898508072
1760107199898532600,6.27453271484375,-0.35135918855667114,-0.08091753721237183,-0.18405337631702423
1760107199908597800,6.28459765625,-0.3620590567588806,-0.01252665463835001,-0.20594465732574463
1760107199918663700,6.29466357421875,-0.3565335273742676,0.04796731472015381,-0.204928919672966
1760107199928728600,6.304728515625,-0.339711457490921,0.07338062673807144,-0.1977079063653946
1760107199938793700,6.314793701171875,-0.3076595067977905,0.05550309270620346,-0.1815989762544632
1760107199948858600,6.324858642578125,-0.25879546999931335,0.009188899770379066,-0.15843889117240906
1760107199958923500,6.334923583984375,-0.20240013301372528,-0.03807741403579712,-0.1414700299501419
1760107199968989700,6.34498974609375,-0.15325120091438293,-0.07244949042797089,-0.12562283873558044
1760107199979054600,6.3550546875,-0.11716030538082123,-0.08786998689174652,-0.11162127554416656
1760107199989119500,6.365119384765625,-0.09823016077280045,-0.1018589660525322,-0.10403157025575638
1760107199999184600,6.3751845703125,-0.09377176314592361,-0.1114860251545906,-0.09268197417259216
1760107200009249800,6.385249755859375,-0.08217990398406982,-0.11014638096094131,-0.07229587435722351
1760107200019315700,6.395315673828125,-0.0702875554561615,-0.09543640911579132,-0.037122707813978195
1760107200029380600,6.405380615234375,-0.05246970057487488,-0.07763290405273438,0.021541910246014595
1760107200039445800,6.41544580078125,-0.031212344765663147,-0.03904183581471443,0.06427152454853058
1760107200049510700,6.4255107421875,-0.028445232659578323,-0.03553975373506546,0.08712879568338394
1760107200059575600,6.435575439453125,-0.047110263258218765,-0.05695929378271103,0.08013346791267395
1760107200069640700,6.445640625,-0.0732387974858284,-0.09050486236810684,0.05755787342786789
1760107200079706600,6.45570654296875,-0.09811192005872726,-0.10647877305746078,0.021596144884824753
1760107200089771500,6.465771484375,-0.11389937251806259,-0.10295259207487106,-0.02493426762521267
1760107200099836700,6.475836669921875,-0.10756025463342667,-0.06991128623485565,-0.05864482372999191
1760107200109901600,6.485901611328125,-0.07900140434503555,-0.033503126353025436,-0.06307279318571091
1760107200119966500,6.495966552734375,-0.051704805344343185,-0.00309169152751565,-0.03926306590437889
1760107200130032600,6.50603271484375,-0.028441419824957848,0.015482458285987377,0.0054540736600756645
1760107200140097500,6.51609765625,-0.014630531892180443,0.026764675974845886,0.07273350656032562
1760107200150162700,6.52616259765625,-0.007304422091692686,0.012105864472687244,0.13293083012104034
1760107200160227600,6.5362275390625,-0.012864302843809128,-0.009742707945406437,0.17660480737686157
1760107200170292700,6.546292724609375,-0.023892132565379143,-0.03968102112412453,0.1850450187921524
1760107200180358700,6.556358642578125,-0.03098173439502716,-0.08288015425205231,0.1663629412651062
1760107200190423800,6.566423828125,-0.02533312886953354,-0.12211941927671432,0.1259831339120865
1760107200200488400,6.576488525390625,-0.008047081530094147,-0.1515635997056961,0.09408164769411087
1760107200210553600,6.5865537109375,0.006568282376974821,-0.15478630363941193,0.07433150708675385
1760107200220618800,6.59661865234375,0.020253734663128853,-0.15042778849601746,0.07490355521440506
1760107200230683600,6.60668359375,0.035990748554468155,-0.13314619660377502,0.1013127937912941
1760107200240749600,6.61674951171875,0.06064203009009361,-0.09327229112386703,0.15429531037807465
1760107200250814700,6.626814697265625,0.09554997086524963,-0.032102134078741074,0.22149837017059326
1760107200260880000,6.6368798828125,0.1230657547712326,0.055391497910022736,0.294373095035553
1760107200270944500,6.646944580078125,0.1372653692960739,0.16427132487297058,0.3552402853965759
1760107200281009700,6.657009765625,0.13918817043304443,0.23863103985786438,0.40327170491218567
1760107200291075600,6.66707568359375,0.1550353318452835,0.26232415437698364,0.3986266851425171
1760107200301140700,6.677140625,0.15880584716796875,0.210842564702034,0.3595578372478485
1760107200311205600,6.68720556640625,0.15839318931102753,0.13209709525108337,0.28894945979118347
1760107200321270800,6.697270751953125,0.15345436334609985,0.004747661761939526,0.1983034461736679
1760107200331335700,6.707335693359375,0.15265536308288574,-0.0801193118095398,0.10568342357873917
1760107200341400600,6.717400634765625,0.13572484254837036,-0.14868104457855225,0.014081863686442375
1760107200351466800,6.727466796875,0.1133292019367218,-0.18284758925437927,-0.08502461761236191
1760107200361531600,6.73753173828125,0.0980120301246643,-0.17117920517921448,-0.18443430960178375
1760107200371596800,6.7475966796875,0.11025431752204895,-0.12623517215251923,-0.2562672197818756
1760107200381661700,6.75766162109375,0.12208754569292068,-0.07396877557039261,-0.29935315251350403
1760107200391726800,6.767726806640625,0.11620349436998367,-0.05487274006009102,-0.31583690643310547
1760107200401792800,6.777792724609375,0.09039054065942764,-0.05396459996700287,-0.3184420168399811
1760107200411857700,6.787857666015625,0.054986339062452316,-0.03380865976214409,-0.29540619254112244
1760107200421922600,6.797922607421875,0.02817230299115181,0.0026513468474149704,-0.2368060052394867
1760107200431987700,6.80798779296875,0.0325285829603672,0.07014097273349762,-0.13733211159706116
1760107200442052600,6.818052490234375,0.06775474548339844,0.13932085037231445,-0.007563992869108915
1760107200452118500,6.828118408203125,0.13249842822551727,0.1859789490699768,0.11088457703590393
1760107200462183700,6.83818359375,0.20406422019004822,0.16599911451339722,0.19456881284713745
1760107200472248800,6.848248779296875,0.2531525492668152,0.08219257742166519,0.2416974902153015
1760107200482313700,6.858313720703125,0.2529509663581848,-0.019914880394935608,0.2505943179130554
1760107200492378600,6.868378662109375,0.20387357473373413,-0.11279535293579102,0.24171002209186554
1760107200502443800,6.87844384765625,0.13862720131874084,-0.17319583892822266,0.20710277557373047
1760107200512509700,6.888509765625,0.07857570797204971,-0.19349518418312073,0.1429794430732727
1760107200522574600,6.89857470703125,0.04389495402574539,-0.20265886187553406,0.059041667729616165
1760107200532639700,6.9086396484375,0.022987714037299156,-0.19261281192302704,-0.03636706992983818
1760107200542705000,6.918704833984375,0.006509937811642885,-0.15803273022174835,-0.11749707907438278
1760107200552769500,6.92876953125,-0.017197787761688232,-0.10966464877128601,-0.1818891167640686
1760107200562835700,6.938835693359375,-0.03937739133834839,-0.07041765004396439,-0.22050069272518158
1760107200572900900,6.94890087890625,-0.06062483787536621,-0.03887581080198288,-0.23929639160633087
1760107200582965500,6.958965576171875,-0.07707145810127258,-0.014538779854774475,-0.23531629145145416
1760107200593030700,6.96903076171875,-0.07895507663488388,-0.0066167921759188175,-0.20319555699825287
1760107200603095800,6.979095703125,-0.06554500013589859,-0.007638647221028805,-0.1569036990404129
1760107200613160700,6.98916064453125,-0.03296622633934021,-0.019000330939888954,-0.10496982932090759
1760107200623226600,6.9992265625,0.0023715244606137276,-0.02306484803557396,-0.05758234113454819
1760107200633291800,7.009291748046875,0.029823152348399162,-0.053602900356054306,-0.016047079116106033
1760107200643357000,7.01935693359375,0.057454515248537064,-0.0747036561369896,0.016030695289373398
1760107200653421600,7.029421630859375,0.08775980025529861,-0.10051815211772919,0.02539137378334999
1760107200663486700,7.03948681640625,0.10045109689235687,-0.15207748115062714,0.03595799580216408
1760107200673552600,7.049552734375,0.08831734210252762,-0.18972280621528625,0.049289025366306305
1760107200683617500,7.059617431640625,0.058047324419021606,-0.21573682129383087,0.07002706080675125
1760107200693682700,7.0696826171875,0.00902792438864708,-0.231875941157341,0.060727450996637344
1760107200703747800,7.079747802734375,-0.038530007004737854,-0.24650654196739197,0.03315601125359535
1760107200713812500,7.0898125,-0.06271504610776901,-0.23664769530296326,-0.009128477424383163
1760107200723878700,7.099878662109375,-0.06967335194349289,-0.21661806106567383,-0.060464903712272644
1760107200733943800,7.10994384765625,-0.06448794156312943,-0.1870637834072113,-0.10172026604413986
1760107200744008700,7.1200087890625,-0.057269446551799774,-0.17442095279693604,-0.12224338948726654
1760107200754073600,7.130073486328125,-0.04014012962579727,-0.1423385888338089,-0.1005021333694458
1760107200764138800,7.140138671875,-0.017650002613663673,-0.12461844086647034,-0.04448680952191353
1760107200774204000,7.150203857421875,-0.004778850357979536,-0.10759427398443222,0.024247176945209503
1760107200784269800,7.160269775390625,-0.011988559737801552,-0.08465833216905594,0.08492570370435715
1760107200794334700,7.170334716796875,-0.02321426384150982,-0.05334498733282089,0.11272521317005157
1760107200804399600,7.180399658203125,-0.054951950907707214,-0.05153962969779968,0.10410402715206146
1760107200814464800,7.19046484375,-0.1025526151061058,-0.08728263527154922,0.07400156557559967
1760107200824529700,7.20052978515625,-0.1463480293750763,-0.1260790377855301,0.04695449396967888
1760107200834594800,7.2105947265625,-0.18395039439201355,-0.1580149382352829,0.0268873143941164
1760107200844660700,7.22066064453125,-0.21328990161418915,-0.18243159353733063,0.015309754759073257
1760107200854725600,7.2307255859375,-0.2473078966140747,-0.17941267788410187,0.01264477800577879
1760107200864790800,7.240790771484375,-0.2854502201080322,-0.12784484028816223,0.019324520602822304
1760107200874855700,7.250855712890625,-0.310146689414978,-0.019434290006756783,0.04478476941585541
1760107200884920600,7.260920654296875,-0.3307047188282013,0.09205309301614761,0.07742873579263687
1760107200894986800,7.27098681640625,-0.3274839222431183,0.1343829333782196,0.10663046687841415
1760107200905051600,7.2810517578125,-0.3045059144496918,0.1220644861459732,0.14202387630939484
1760107200915116800,7.29111669921875,-0.25912728905677795,0.09589624404907227,0.19372208416461945
1760107200925181700,7.301181640625,-0.21017201244831085,0.055571720004081726,0.25620731711387634
1760107200935246600,7.31124658203125,-0.16933481395244598,0.012175517156720161,0.3093898892402649
1760107200945312800,7.321312744140625,-0.13051311671733856,-0.031790606677532196,0.34009161591529846
1760107200955378000,7.3313779296875,-0.11095147579908371,-0.07256218045949936,0.33620908856391907
1760107200965442600,7.341442626953125,-0.09246540814638138,-0.08789532631635666,0.292725533246994
1760107200975507700,7.3515078125,-0.07550028711557388,-0.06716408580541611,0.2220553308725357
1760107200985572900,7.36157275390625,-0.06285213679075241,-0.020837336778640747,0.13754896819591522
1760107200995637800,7.3716376953125,-0.05735447257757187,0.03204789385199547,0.038693953305482864
1760107201005703700,7.38170361328125,-0.06999277323484421,0.07356764376163483,-0.07021628320217133
1760107201015768800,7.391768798828125,-0.09428440779447556,0.07612727582454681,-0.1771552413702011
1760107201025833700,7.401833740234375,-0.14018771052360535,0.0664253756403923,-0.29567816853523254
1760107201035898600,7.411898681640625,-0.2075105607509613,0.03901638835668564,-0.41007399559020996
1760107201045963800,7.4219638671875,-0.28725478053092957,0.0010546986013650894,-0.51228928565979
1760107201056028700,7.432028564453125,-0.3748841881752014,-0.040241580456495285,-0.5747177004814148
1760107201066094600,7.442094482421875,-0.4174353778362274,-0.060821957886219025,-0.574493944644928
1760107201076159700,7.45215966796875,-0.3870079815387726,-0.03117619827389717,-0.48739108443260193
1760107201086225000,7.462224853515625,-0.2739112675189972,0.031384117901325226,-0.33368220925331116
1760107201096289500,7.47228955078125,-0.12984110414981842,0.09813813865184784,-0.13065390288829803
1760107201106354700,7.482354736328125,-0.000638923142105341,0.15913917124271393,0.08890453726053238
1760107201116420900,7.4924208984375,0.062342096120119095,0.17733772099018097,0.2678925395011902
1760107201126485500,7.502485595703125,0.05983925983309746,0.14578032493591309,0.3765638768672943
1760107201136550700,7.512550537109375,0.020128533244132996,0.0954582542181015,0.4236500561237335
1760107201146615800,7.52261572265625,-0.02641206979751587,0.05321493372321129,0.41542381048202515
1760107201156680700,7.5326806640625,-0.06694038957357407,0.008693781681358814,0.3615950345993042
1760107201166746600,7.54274658203125,-0.09020736068487167,-0.0385136753320694,0.2835231423377991
1760107201176811800,7.552811767578125,-0.0984416976571083,-0.10651221871376038,0.19920378923416138
1760107201186876700,7.562876708984375,-0.1046748235821724,-0.1806921660900116,0.1221284493803978
1760107201196941600,7.572941650390625,-0.1175009235739708,-0.2377561628818512,0.053209468722343445
1760107201207006700,7.5830068359375,-0.1301586627960205,-0.251409649848938,0.005662722513079643
1760107201217071900,7.59307177734375,-0.16000641882419586,-0.21088850498199463,-0.01981091871857643
1760107201227137800,7.6031376953125,-0.21006053686141968,-0.13972777128219604,-0.03745516017079353
1760107201237202400,7.613202392578125,-0.27608710527420044,-0.08047691732645035,-0.05722460895776749
1760107201247267600,7.623267578125,-0.3363714814186096,-0.04769979789853096,-0.08761154115200043
1760107201257332500,7.63333251953125,-0.36597198247909546,-0.03219900652766228,-0.11948774009943008
1760107201267397400,7.6433974609375,-0.3750472366809845,-0.040488094091415405,-0.14578832685947418
1760107201277462500,7.653462646484375,-0.36714816093444824,-0.06421518325805664,-0.17128059267997742
1760107201287528400,7.663528564453125,-0.3389069139957428,-0.0803118571639061,-0.1824227273464203
1760107201297593300,7.67359326171875,-0.303403377532959,-0.07713904231786728,-0.1799291968345642
1760107201307658500,7.683658447265625,-0.2628306746482849,-0.06230390816926956,-0.160126730799675
1760107201317723400,7.693723388671875,-0.2216789424419403,-0.06033619865775108,-0.1287277489900589
1760107201327788300,7.703788330078125,-0.18495981395244598,-0.05994444712996483,-0.0856628268957138
1760107201337854500,7.7138544921875,-0.14908984303474426,-0.04935727268457413,-0.04618071764707565
1760107201347919400,7.72391943359375,-0.12616482377052307,-0.04195234924554825,-0.023568084463477135
1760107201357984500,7.733984619140625,-0.1178247332572937,-0.040064241737127304,-0.02173421159386635
1760107201368049400,7.74404931640625,-0.12748295068740845,-0.03341086581349373,-0.04569120705127716
1760107201378114600,7.754114501953125,-0.14866794645786285,-0.02342323400080204,-0.08317698538303375
1760107201388179500,7.764179443359375,-0.1675545573234558,-0.007483682595193386,-0.11495888233184814
1760107201398245600,7.77424560546875,-0.1697104424238205,0.014465254731476307,-0.13565705716609955
1760107201408310500,7.784310546875,-0.15112262964248657,0.04249129444360733,-0.11999499797821045
1760107201418375400,7.79437548828125,-0.1189972460269928,0.0681966170668602,-0.08769923448562622
1760107201428440600,7.804440673828125,-0.07887006551027298,0.0833984762430191,-0.040593504905700684
1760107201438505500,7.81450537109375,-0.036946725100278854,0.07152990996837616,0.0008149005006998777
1760107201448571400,7.8245712890625,-0.004643647000193596,0.04258188232779503,0.02021602913737297
1760107201458636500,7.834636474609375,0.002035772427916527,0.01500738225877285,0.0234812144190073
1760107201468701400,7.844701416015625,-0.015781840309500694,0.0006753141060471535,-0.0012451704824343324
1760107201478766300,7.854766357421875,-0.04190719127655029,-0.0031315824016928673,-0.03183611109852791
1760107201488831500,7.86483154296875,-0.06400370597839355,-0.012932281009852886,-0.05346577242016792
1760107201498896400,7.874896484375,-0.07598588615655899,-0.03085433319211006,-0.048659469932317734
1760107201508962300,7.88496240234375,-0.06541579961776733,-0.021133262664079666,-0.008150124922394753
1760107201519027500,7.89502734375,-0.03446035459637642,0.0022131651639938354,0.050673894584178925
1760107201529092600,7.905092529296875,0.001602307427674532,0.01029878854751587,0.10349210351705551
1760107201539157500,7.915157470703125,0.024295581504702568,0.007525495253503323,0.13417452573776245
1760107201549222400,7.925222412109375,0.02570332959294319,0.009629658423364162,0.1207982674241066
1760107201559288600,7.93528857421875,0.009648025967180729,0.003064330667257309,0.066314198076725
1760107201569353200,7.945353271484375,-0.015492214821279049,-0.024231206625699997,-0.004835341591387987
1760107201579418400,7.95541845703125,-0.04730762541294098,-0.061951395124197006,-0.05168293043971062
1760107201589483500,7.9654833984375,-0.06766696274280548,-0.0790930986404419,-0.05971395969390869
1760107201599548400,7.97554833984375,-0.0821143314242363,-0.06847786903381348,-0.02348003163933754
1760107201609613300,7.98561328125,-0.07238873094320297,-0.050962258130311966,0.031109977513551712
1760107201619679500,7.995679443359375,-0.04788719490170479,-0.04852217435836792,0.0851549580693245
1760107201629744600,8.00574462890625,-0.01534070260822773,-0.059745535254478455,0.12087567150592804
1760107201639809300,8.015809326171874,0.018535912036895752,-0.05668295919895172,0.1372932493686676
1760107201649874400,8.02587451171875,0.039466492831707,-0.026090428233146667,0.13213151693344116
1760107201659939600,8.035939697265626,0.03300939127802849,0.030376307666301727,0.10822059214115143
1760107201670005500,8.046005615234375,0.016206711530685425,0.07024489343166351,0.06572826206684113
1760107201680070400,8.0560703125,0.007738390006124973,0.09567781537771225,0.020531756803393364
1760107201690135600,8.066135498046876,0.016080208122730255,0.10724152624607086,-0.02630658820271492
1760107201700200400,8.076200439453125,0.025279749184846878,0.09802961349487305,-0.08199451863765717
1760107201710265300,8.086265380859375,0.016821281984448433,0.06224924325942993,-0.1424112617969513
1760107201720330500,8.09633056640625,0.011721860617399216,-0.005177731160074472,-0.19646169245243073
1760107201730396400,8.106396484375,0.012686990201473236,-0.06165086105465889,-0.24301055073738098
1760107201740461300,8.11646142578125,0.017111696302890778,-0.05597560852766037,-0.2450265735387802
1760107201750526500,8.1265263671875,0.03392955660820007,-0.011179639026522636,-0.21625405550003052
1760107201760591600,8.136591552734375,0.06681293994188309,0.04902803897857666,-0.15948398411273956
1760107201770656300,8.14665625,0.1063837856054306,0.09121837466955185,-0.10108593106269836
1760107201780721400,8.156721435546874,0.1437397450208664,0.0972757637500763,-0.04200650751590729
1760107201790787600,8.16678759765625,0.18706297874450684,0.11693815141916275,0.03818047419190407
1760107201800852500,8.1768525390625,0.22306038439273834,0.16228444874286652,0.13575254380702972
1760107201810917400,8.18691748046875,0.24919450283050537,0.19356860220432281,0.22403180599212646
1760107201820982500,8.196982421875,0.26308923959732056,0.20374812185764313,0.27062058448791504
1760107201831047400,8.20704736328125,0.26901426911354065,0.17386505007743835,0.2735883891582489
1760107201841113600,8.217113525390625,0.27425438165664673,0.10710872709751129,0.23969054222106934
1760107201851178500,8.227178466796875,0.28005900979042053,0.029448019340634346,0.19458937644958496
1760107201861243400,8.237243408203126,0.27060097455978394,-0.02036459371447563,0.14935244619846344
1760107201871308500,8.24730859375,0.25952914357185364,-0.05742274597287178,0.11323012411594391
1760107201881373400,8.25737353515625,0.2555544972419739,-0.06634454429149628,0.09332485496997833
1760107201891438600,8.2674384765625,0.2585894465446472,-0.06527449190616608,0.08068735897541046
1760107201901504500,8.27750439453125,0.2558692693710327,-0.06962503492832184,0.05356057360768318
1760107201911569400,8.2875693359375,0.24426105618476868,-0.0822548121213913,0.023799216374754906
1760107201921634600,8.297634521484374,0.2246103137731552,-0.10070084035396576,-0.01902008056640625
1760107201931699500,8.307699462890625,0.19231468439102173,-0.10948155075311661,-0.07446257025003433
1760107201941764400,8.317764404296875,0.16191606223583221,-0.12105817347764969,-0.12288249284029007
1760107201951829500,8.32782958984375,0.13832524418830872,-0.12348165363073349,-0.14796653389930725
1760107201961895400,8.3378955078125,0.1252497136592865,-0.1054694801568985,-0.1304795742034912
1760107201971960600,8.347960693359376,0.12462573498487473,-0.07295041531324387,-0.07632552832365036
1760107201982025500,8.358025390625,0.14355038106441498,-0.017816072329878807,0.010834314860403538
1760107201992090400,8.36809033203125,0.16885094344615936,0.018139265477657318,0.10333628952503204
1760107202002155500,8.378155517578126,0.1847722828388214,0.0391576811671257,0.16579917073249817
1760107202012220400,8.388220458984375,0.17901267111301422,0.03733927384018898,0.1804758608341217
1760107202022286300,8.398286376953125,0.15791523456573486,0.005646411329507828,0.14537623524665833
1760107202032351500,8.4083515625,0.13701875507831573,-0.0446614995598793,0.08324973285198212
1760107202042416600,8.418416748046875,0.12446532398462296,-0.07791325449943542,0.02964760735630989
1760107202052481500,8.4284814453125,0.11786867678165436,-0.07361944019794464,0.005436277482658625
1760107202062546400,8.43854638671875,0.11165472120046616,-0.04991864040493965,0.01863996498286724
1760107202072612600,8.448612548828125,0.10261142253875732,-0.01480006892234087,0.05080269277095795
1760107202082677200,8.45867724609375,0.08737783879041672,0.010024568997323513,0.08845596760511398
1760107202092742400,8.468742431640624,0.07022441923618317,0.016343984752893448,0.1115943118929863
1760107202102807600,8.4788076171875,0.05966617539525032,-0.0008940454572439194,0.11602019518613815
1760107202112872400,8.48887255859375,0.0426163487136364,-0.03293213993310928,0.11314158886671066
1760107202122937300,8.498937255859374,0.02941075526177883,-0.07411365956068039,0.09978920966386795
1760107202133003500,8.50900341796875,0.020885178819298744,-0.12169955670833588,0.10322335362434387
1760107202143068700,8.519068603515626,0.020393677055835724,-0.1490282118320465,0.1293278932571411
1760107202153133300,8.52913330078125,0.016090810298919678,-0.14456582069396973,0.17481708526611328
1760107202163198500,8.539198486328125,0.013690554536879063,-0.12762877345085144,0.22099268436431885
1760107202173263600,8.549263671875,-0.004426396917551756,-0.10181741416454315,0.24450147151947021
1760107202183329300,8.559329345703125,-0.03529444709420204,-0.08498790860176086,0.24215812981128693
1760107202193394400,8.56939453125,-0.060518842190504074,-0.060691095888614655,0.21204283833503723
1760107202203459600,8.57945947265625,-0.08613013476133347,-0.03882699832320213,0.15636557340621948
1760107202213524200,8.589524169921875,-0.1004110723733902,-0.04600714519619942,0.08963686972856522
1760107202223589400,8.59958935546875,-0.11313646286725998,-0.09632748365402222,0.04006078839302063
1760107202233654800,8.60965478515625,-0.11877330392599106,-0.16448310017585754,0.03067900612950325
1760107202243720700,8.619720703125,-0.12406875193119049,-0.189087375998497,0.05896281823515892
1760107202253785600,8.62978564453125,-0.13459569215774536,-0.18112851679325104,0.11409371346235275
1760107202263850800,8.639850830078124,-0.1508631855249405,-0.1207849383354187,0.18352366983890533
1760107202273915600,8.64991552734375,-0.18121524155139923,-0.046504318714141846,0.23446382582187653
1760107202283980500,8.65998046875,-0.2346738874912262,0.015415117144584656,0.2508580982685089
1760107202294045700,8.670045654296874,-0.2833138704299927,0.060495775192976,0.23136162757873535
1760107202304111600,8.680111572265625,-0.29399916529655457,0.09957225620746613,0.20824585855007172
1760107202314176800,8.6901767578125,-0.28940922021865845,0.1173911914229393,0.17545941472053528
1760107202324241700,8.70024169921875,-0.28627511858940125,0.07950618118047714,0.13590285181999207
1760107202334306800,8.710306884765625,-0.264175683259964,0.05876494571566582,0.0783093273639679
1760107202344371700,8.720371826171874,-0.24884644150733948,0.04321465641260147,0.008868079632520676
1760107202354436600,8.7304365234375,-0.2667207717895508,0.008499550633132458,-0.07399830967187881
1760107202364502800,8.740502685546875,-0.3181198835372925,-0.01404322125017643,-0.17644818127155304
1760107202374567700,8.750567626953124,-0.3946564793586731,-0.043869826942682266,-0.3075084686279297
1760107202384632600,8.760632568359375,-0.45519697666168213,-0.07425951212644577,-0.44981464743614197
1760107202394697700,8.77069775390625,-0.47737953066825867,-0.08004230260848999,-0.5730012655258179
1760107202404762600,8.7807626953125,-0.45833146572113037,-0.03502781689167023,-0.6282623410224915
1760107202414828800,8.790828857421875,-0.41606390476226807,0.023338820785284042,-0.6182160973548889
1760107202424893700,8.800893798828126,-0.3638125956058502,0.06829342991113663,-0.5490474104881287
1760107202434958600,8.81095849609375,-0.31692713499069214,0.08964958041906357,-0.45044657588005066
1760107202445023700,8.821023681640625,-0.28081953525543213,0.10700149834156036,-0.3164631128311157
1760107202455088600,8.831088623046876,-0.2541775405406952,0.12280495464801788,-0.16226263344287872
1760107202465153800,8.84115380859375,-0.25041329860687256,0.1227690801024437,-0.00758545845746994
1760107202475219700,8.8512197265625,-0.2502409815788269,0.10682021081447601,0.12006251513957977
1760107202485284900,8.861284912109374,-0.2471236288547516,0.07998931407928467,0.20585332810878754
1760107202495349800,8.871349853515625,-0.22360073029994965,0.05877803638577461,0.2414480745792389
1760107202505414700,8.88141455078125,-0.18728169798851013,0.050312064588069916,0.23850533366203308
1760107202515479800,8.891479736328124,-0.14372703433036804,0.03805646300315857,0.21024839580059052
1760107202525545500,8.90154541015625,-0.12103551626205444,0.020618394017219543,0.17536111176013947
1760107202535610600,8.911610595703126,-0.12588566541671753,0.019954469054937363,0.13522568345069885
1760107202545675800,8.92167578125,-0.15275807678699493,0.02626292034983635,0.08321402221918106
1760107202555740700,8.93174072265625,-0.19014513492584229,0.0028289686888456345,0.018179895356297493
1760107202565805600,8.9418056640625,-0.2339763641357422,-0.04558748006820679,-0.05127665027976036
1760107202575870700,8.95187060546875,-0.282855749130249,-0.11279793828725815,-0.13017572462558746
1760107202585937000,8.96193701171875,-0.32347434759140015,-0.18998411297798157,-0.1942962408065796
1760107202596001500,8.97200146484375,-0.34366297721862793,-0.23706187307834625,-0.22889363765716553
1760107202606066700,8.982066650390625,-0.3343508839607239,-0.23283767700195312,-0.21058213710784912
1760107202616131800,8.9921318359375,-0.29882991313934326,-0.16427937150001526,-0.15481874346733093
1760107202626196700,9.00219677734375,-0.25665026903152466,-0.08037088811397552,-0.07781299203634262
1760107202636261600,9.01226171875,-0.21974392235279083,-0.015025442466139793,-0.009220612235367298
1760107202646327800,9.022327880859375,-0.190785750746727,0.004911113530397415,0.038361623883247375
1760107202656392700,9.032392822265624,-0.17043040692806244,-0.0018527833744883537,0.05344549939036369
1760107202666457600,9.04245751953125,-0.15566731989383698,-0.02294963225722313,0.04276806488633156
1760107202676522800,9.052522705078125,-0.14477099478244781,-0.05721519514918327,0.013513505458831787
1760107202686588000,9.062587890625,-0.1252814680337906,-0.11356782168149948,0.00034707970917224884
1760107202696652500,9.072652587890625,-0.09963469207286835,-0.11689943075180054,0.005327457096427679
1760107202706718700,9.08271875,-0.07036735862493515,-0.08937407284975052,0.021171683445572853
1760107202716783900,9.092783935546874,-0.040526099503040314,-0.0803920328617096,0.035793237388134
1760107202726848500,9.1028486328125,-0.019755061715841293,-0.08560223132371902,0.04809671267867088
1760107202736913700,9.11291357421875,-0.028499020263552666,-0.07893793284893036,0.05970223620533943
1760107202746978800,9.122978759765624,-0.07902394980192184,-0.0536247193813324,0.0553475059568882
1760107202757043700,9.133043701171875,-0.13798658549785614,-0.040254585444927216,0.033122628927230835
1760107202767109600,9.143109619140626,-0.17738686501979828,-0.04149726405739784,0.005468098912388086
1760107202777174800,9.1531748046875,-0.19857551157474518,-0.0510508231818676,-0.03328568860888481
1760107202787239700,9.16323974609375,-0.19526410102844238,-0.0609523169696331,-0.06735704094171524
1760107202797304600,9.1733046875,-0.18499282002449036,-0.07280152291059494,-0.08656109124422073
1760107202807369700,9.18336962890625,-0.17650824785232544,-0.07731512933969498,-0.08446837216615677
1760107202817435600,9.193435546875,-0.16114792227745056,-0.06529202312231064,-0.07067426294088364
1760107202827500800,9.203500732421874,-0.14248251914978027,-0.05610101670026779,-0.040157657116651535
1760107202837565700,9.213565673828125,-0.12168589234352112,-0.03357493504881859,0.001990859629586339
1760107202847630800,9.223630859375,-0.1151493489742279,-0.0018780790269374847,0.038676582276821136
1760107202857695700,9.23369580078125,-0.10885656625032425,-0.004515407141298056,0.0716976523399353
1760107202867760600,9.2437607421875,-0.09892261773347855,-0.014865340664982796,0.09838378429412842
1760107202877826800,9.253826904296876,-0.08339346200227737,-0.04845526069402695,0.12624844908714294
1760107202887891700,9.2638916015625,-0.0627124011516571,-0.06582079827785492,0.15624018013477325
1760107202897956600,9.27395654296875,-0.048885807394981384,-0.07607130706310272,0.17140181362628937
1760107202908021800,9.284021728515626,-0.030906720086932182,-0.06891295313835144,0.18269246816635132
1760107202918086700,9.294086669921874,-0.018329940736293793,-0.0651530995965004,0.1963622123003006
1760107202928151600,9.304151611328125,-0.0049149272963404655,-0.05536554008722305,0.20868386328220367
1760107202938217700,9.3142177734375,0.007241604384034872,-0.04617710039019585,0.21426264941692352
1760107202948282600,9.32428271484375,0.008683685213327408,-0.04301460087299347,0.2165052741765976
1760107202958347800,9.33434765625,0.007801912259310484,-0.037575893104076385,0.22113411128520966
1760107202968412700,9.34441259765625,0.019210584461688995,-0.013534202240407467,0.23662666976451874
1760107202978477800,9.354477783203125,0.03849080204963684,0.02445659041404724,0.2543971538543701
1760107202988542700,9.364542724609375,0.0640186071395874,0.06414985656738281,0.2652760446071625
1760107202998608600,9.374608642578124,0.10466749966144562,0.10213851183652878,0.2768291234970093
1760107203008673800,9.384673828125,0.14221759140491486,0.14087563753128052,0.2790287137031555
1760107203018738700,9.39473876953125,0.15057113766670227,0.1528225839138031,0.26505857706069946
1760107203028803600,9.404803466796874,0.1449587643146515,0.14723137021064758,0.23893558979034424
1760107203038868700,9.41486865234375,0.15870973467826843,0.1496862769126892,0.2151477038860321
1760107203048933600,9.42493359375,0.17992819845676422,0.14044581353664398,0.1738647073507309
1760107203058999800,9.434999755859375,0.14941316843032837,0.03274066001176834,0.10315379500389099
1760107203069064700,9.445064697265625,0.12357630580663681,-0.11627008020877838,-0.03079270012676716
1760107203079129600,9.455129638671876,0.1166510283946991,-0.22148916125297546,-0.20940612256526947
1760107203089194800,9.46519482421875,0.13752520084381104,-0.2920285761356354,-0.36778396368026733
1760107203099259600,9.475259765625,0.18496035039424896,-0.2445944994688034,-0.42551276087760925
1760107203109324800,9.48532470703125,0.24326367676258087,-0.08893458545207977,-0.371627539396286
1760107203119390700,9.495390625,0.28882741928100586,0.07741524279117584,-0.2536553740501404
1760107203129455900,9.505455810546875,0.3134918808937073,0.17524494230747223,-0.12438906729221344
1760107203139520800,9.515520751953124,0.3204618990421295,0.21929602324962616,-0.020893830806016922
1760107203149585700,9.525585693359375,0.3255856931209564,0.23397545516490936,0.06977516412734985
1760107203159650800,9.53565087890625,0.34009993076324463,0.2519214451313019,0.15957322716712952
1760107203169716500,9.545716552734374,0.3465630114078522,0.27566635608673096,0.24694134294986725
1760107203179781600,9.55578173828125,0.35874563455581665,0.32276651263237,0.30241659283638
1760107203189846800,9.5658466796875,0.3908687233924866,0.33685585856437683,0.3254314661026001
1760107203199911700,9.57591162109375,0.39646244049072266,0.28178808093070984,0.29635879397392273
1760107203209976600,9.5859765625,0.36041316390037537,0.18382063508033752,0.22351165115833282
1760107203220041700,9.596041748046876,0.29112356901168823,0.0963248759508133,0.10573415458202362
1760107203230108000,9.60610791015625,0.21693198382854462,0.015312676317989826,-0.03031301312148571
1760107203240172300,9.61617236328125,0.15929850935935974,-0.04601992294192314,-0.17696771025657654
1760107203250237200,9.6262373046875,0.11498142778873444,-0.10386964678764343,-0.30546966195106506
1760107203260302300,9.63630224609375,0.09764664620161057,-0.1350368857383728,-0.402421236038208
1760107203270367500,9.646367431640625,0.09703856706619263,-0.12403954565525055,-0.44620534777641296
1760107203280432000,9.65643212890625,0.10256969183683395,-0.07936741411685944,-0.4442442059516907
1760107203290498300,9.666498291015625,0.09272899478673935,-0.02033209800720215,-0.40399405360221863
1760107203300563500,9.6765634765625,0.09564515948295593,0.03551891818642616,-0.36016562581062317
1760107203310628400,9.68662841796875,0.09687027335166931,0.07217177748680115,-0.30963706970214844
1760107203320693200,9.696693359375,0.09596746414899826,0.08618080615997314,-0.25493812561035156
1760107203330758400,9.70675830078125,0.0809757336974144,0.08203532546758652,-0.2254132777452469
1760107203340823300,9.7168232421875,0.05812900885939598,0.06510188430547714,-0.2129824459552765
1760107203350889500,9.726889404296875,0.0525844432413578,0.034195587038993835,-0.21876920759677887
1760107203360954400,9.736954345703126,0.07515739649534225,0.0032664360478520393,-0.21344581246376038
1760107203371019300,9.747019287109374,0.11480007320642471,-0.00543242646381259,-0.1892322450876236
1760107203381084400,9.75708447265625,0.1532910019159317,0.0071366289630532265,-0.14253132045269012
1760107203391149300,9.7671494140625,0.19466857612133026,0.024788111448287964,-0.08784295618534088
1760107203401214500,9.77721435546875,0.23142951726913452,0.039165984839200974,-0.05024631693959236
1760107203411280400,9.7872802734375,0.2360939383506775,0.02958570048213005,-0.022592784836888313
1760107203421345300,9.79734521484375,0.20072157680988312,0.0007764231413602829,-0.012001126073300838
1760107203431410400,9.807410400390625,0.14278563857078552,-0.05345774441957474,-0.0033087111078202724
1760107203441475300,9.817475341796875,0.08966781944036484,-0.11488807946443558,0.011048922315239906
1760107203451540200,9.827540283203126,0.05436742305755615,-0.16106565296649933,0.04092465341091156
1760107203461605400,9.83760546875,0.04488976299762726,-0.16110479831695557,0.08188833296298981
1760107203471671300,9.84767138671875,0.04997469484806061,-0.14946840703487396,0.10645284503698349
1760107203481736400,9.857736328125,0.05913463607430458,-0.14021658897399902,0.11787168681621552
1760107203491801300,9.86780126953125,0.043885812163352966,-0.1327279657125473,0.10291996598243713
1760107203501866200,9.8778662109375,0.00966552458703518,-0.12756995856761932,0.06299598515033722
1760107203511931400,9.887931396484374,-0.015966664999723434,-0.12347246706485748,0.025979790836572647
1760107203521996300,9.897996337890625,-0.02413244917988777,-0.11730058491230011,0.013661340810358524
1760107203532062200,9.908062255859376,-0.02645542472600937,-0.1014181524515152,0.035707730799913406
1760107203542127400,9.91812744140625,-0.0369485467672348,-0.08806772530078888,0.08529046922922134
1760107203552192300,9.928192138671875,-0.058140479028224945,-0.096518874168396,0.13086280226707458
1760107203562257400,9.93825732421875,-0.0889442041516304,-0.11480041593313217,0.1598731428384781
1760107203572322300,9.948322265625,-0.12588055431842804,-0.13576997816562653,0.16269175708293915
1760107203582387500,9.958387451171875,-0.16598989069461823,-0.15710748732089996,0.1357373744249344
1760107203592453000,9.968453125,-0.2025088518857956,-0.17489628493785858,0.08692331612110138
1760107203602518300,9.978518310546875,-0.21384379267692566,-0.20313458144664764,0.033648379147052765
1760107203612583400,9.98858349609375,-0.2064359486103058,-0.23424670100212097,-0.001450217911042273
1760107203622648300,9.9986484375,-0.19076406955718994,-0.23794417083263397,-0.012521573342382908
1760107203632713200,10.008713134765625,-0.178907111287117,-0.22627368569374084,-0.0034145815297961235
1760107203642778400,10.0187783203125,-0.1657700091600418,-0.20097605884075165,0.024462588131427765
1760107203652844500,10.028844482421874,-0.15689459443092346,-0.1644122153520584,0.07218462228775024
1760107203662909200,10.0389091796875,-0.16908946633338928,-0.13538482785224915,0.11283644288778305
1760107203672974300,10.048974365234375,-0.19548416137695312,-0.1119835376739502,0.1434604823589325
1760107203683039500,10.05903955078125,-0.23275350034236908,-0.0692531168460846,0.15674512088298798
1760107203693104400,10.0691044921875,-0.26862481236457825,-0.023206626996397972,0.13977250456809998
1760107203703169300,10.079169189453125,-0.3107781410217285,0.008904436603188515,0.08485332131385803
1760107203713235500,10.0892353515625,-0.3642190396785736,0.011914491653442383,-0.025821106508374214
1760107203723300000,10.099300048828125,-0.42298728227615356,-0.010561256669461727,-0.17722393572330475
1760107203733365200,10.109365234375,-0.4701637625694275,-0.035567160695791245,-0.3325353264808655
1760107203743430400,10.119430419921875,-0.5048400163650513,-0.024204783141613007,-0.4542732238769531
1760107203753495300,10.129495361328125,-0.523722231388092,0.0383262075483799,-0.5134755969047546
1760107203763560200,10.139560302734376,-0.5201453566551208,0.13274060189723969,-0.49616214632987976
1760107203773626400,10.14962646484375,-0.4851115643978119,0.2064633071422577,-0.42486393451690674
1760107203783691500,10.15969140625,-0.42295151948928833,0.2195761799812317,-0.317963570356369
1760107203793756200,10.169756103515626,-0.3444771468639374,0.18540386855602264,-0.20599475502967834
1760107203803821300,10.1798212890625,-0.27747413516044617,0.14202311635017395,-0.08895895630121231
1760107203813886500,10.189886474609375,-0.24558869004249573,0.08594240993261337,0.010519320145249367
1760107203823951400,10.199951416015624,-0.259282648563385,0.014555312693119049,0.07036454230546951
1760107203834017300,10.210017333984375,-0.2807876765727997,-0.04319654032588005,0.11501410603523254
1760107203844082400,10.22008251953125,-0.30426743626594543,-0.07189635932445526,0.13176113367080688
1760107203854147300,10.230147216796874,-0.3137980103492737,-0.08283151686191559,0.12694226205348969
1760107203864212200,10.240212158203125,-0.292368620634079,-0.08301421254873276,0.10308593511581421
1760107203874277400,10.25027734375,-0.2472885102033615,-0.08387733995914459,0.07329709827899933
1760107203884342500,10.260342529296874,-0.20647263526916504,-0.09243274480104446,0.03534039482474327
1760107203894408200,10.270408203125,-0.17718014121055603,-0.11449499428272247,-0.014380582608282566
1760107203904473300,10.280473388671876,-0.15278106927871704,-0.15960362553596497,-0.07203029841184616
1760107203914538500,10.29053857421875,-0.13527461886405945,-0.19603773951530457,-0.11990376561880112
1760107203924603100,10.30060302734375,-0.13181518018245697,-0.21485909819602966,-0.16550160944461823
1760107203934668300,10.310668212890626,-0.13726554811000824,-0.20475344359874725,-0.20092158019542694
1760107203944733400,10.3207333984375,-0.1669270396232605,-0.18862587213516235,-0.23082993924617767
1760107203954799400,10.33079931640625,-0.19145692884922028,-0.1885012686252594,-0.24098998308181763
1760107203964864300,10.3408642578125,-0.1817355901002884,-0.15972420573234558,-0.1975753903388977
1760107203974929400,10.350929443359375,-0.14463691413402557,-0.07212727516889572,-0.11562345921993256
1760107203984994300,10.360994384765625,-0.091855987906456,0.0232573002576828,-0.0358298197388649
1760107203995059200,10.37105908203125,-0.03889494016766548,0.0861823707818985,0.013530731201171875
1760107204005124400,10.381124267578125,-0.010705910623073578,0.1116642951965332,0.027851613238453865
1760107204015190300,10.391190185546876,-0.013944175094366074,0.12319541722536087,0.007586841005831957
1760107204025255400,10.40125537109375,-0.02191581390798092,0.15018761157989502,-0.03556569293141365
1760107204035320300,10.4113203125,-0.009206240065395832,0.1657586693763733,-0.08661415427923203
1760107204045385500,10.421385498046876,0.003824873361736536,0.13921815156936646,-0.15560947358608246
1760107204055450400,10.431450439453124,0.015269340947270393,0.1167312040925026,-0.228610560297966
1760107204065515300,10.441515380859375,0.02264789491891861,0.10348038375377655,-0.28600648045539856
1760107204075581400,10.45158154296875,0.04076772183179855,0.1331758350133896,-0.32163572311401367
1760107204085646300,10.461646240234375,0.04456619173288345,0.20380152761936188,-0.32609865069389343
1760107204095711200,10.471711181640625,0.05560284107923508,0.28925010561943054,-0.3314119279384613
1760107204105776400,10.4817763671875,0.08706782013177872,0.3424001634120941,-0.3372543752193451
1760107204115841300,10.49184130859375,0.13575036823749542,0.3754788935184479,-0.3357548117637634
1760107204125906200,10.50190625,0.15944771468639374,0.4093140959739685,-0.3202456533908844
1760107204135972400,10.511972412109374,0.1500602513551712,0.47050338983535767,-0.2922559976577759
1760107204146037200,10.522037353515625,0.1110854223370552,0.5507090091705322,-0.25593048334121704
1760107204156102400,10.532102294921875,0.056185007095336914,0.5513560771942139,-0.20507238805294037
1760107204166167300,10.542167236328124,0.03414468467235565,0.4942120611667633,-0.12418631464242935
1760107204176232400,10.552232421875,0.0864025130867958,0.4205451011657715,-0.025709647685289383
1760107204186297300,10.56229736328125,0.2173280268907547,0.3737826645374298,0.062370408326387405
1760107204196363300,10.57236328125,0.3677390515804291,0.3289271891117096,0.10302504897117615
1760107204206428400,10.582428466796875,0.4971183240413666,0.27360668778419495,0.08083505928516388
1760107204216493300,10.592493408203126,0.5705028772354126,0.18276512622833252,0.018415190279483795
1760107204226558500,10.602558349609374,0.5916520953178406,0.07199785858392715,-0.04017968103289604
1760107204236623400,10.612623291015625,0.5836225748062134,-0.01933376118540764,-0.05328720808029175
1760107204246688300,10.622688232421876,0.5492944121360779,-0.12194216251373291,-0.0047242003493011
1760107204256754400,10.63275439453125,0.5053203105926514,-0.21709716320037842,0.09617365151643753
1760107204266819300,10.6428193359375,0.4541974663734436,-0.24360334873199463,0.2160627692937851
1760107204276884200,10.65288427734375,0.40694236755371094,-0.2469233274459839,0.29748448729515076
1760107204286949400,10.662949462890625,0.37349703907966614,-0.27209073305130005,0.32546764612197876
1760107204297014300,10.67301416015625,0.36894795298576355,-0.3219180405139923,0.29565247893333435
1760107204307079400,10.683079345703124,0.38082191348075867,-0.3502649962902069,0.2203414887189865
1760107204317145300,10.693145263671875,0.3837650418281555,-0.37623798847198486,0.1322748363018036
1760107204327210500,10.70321044921875,0.4090711772441864,-0.33095255494117737,0.08074319362640381
1760107204337275400,10.713275390625,0.4342007040977478,-0.20893768966197968,0.057525087147951126
1760107204347340300,10.72334033203125,0.4578482508659363,-0.07879592478275299,0.06506476551294327
1760107204357405400,10.733405517578126,0.48073551058769226,0.041667889803647995,0.06819672882556915
1760107204367470300,10.74347021484375,0.45590445399284363,0.07313819974660873,0.03678048774600029
1760107204377536300,10.753536376953125,0.36905959248542786,0.03584601357579231,-0.03054041974246502
1760107204387601400,10.763601318359376,0.2274998128414154,-0.021353624761104584,-0.11871767789125443
1760107204397666300,10.773666259765625,0.07307326793670654,-0.06180119886994362,-0.211210235953331
1760107204407731200,10.783731201171875,-0.05301382392644882,-0.060450974851846695,-0.2864501476287842
1760107204417796400,10.79379638671875,-0.1223539337515831,-0.0131292212754488,-0.3181016445159912
1760107204427861200,10.803861328125,-0.11660310626029968,0.10911493003368378,-0.31502196192741394
1760107204437927200,10.81392724609375,-0.07210405170917511,0.2147044688463211,-0.2865236699581146
1760107204447992300,10.823992431640624,0.012293384410440922,0.30581629276275635,-0.2616004943847656
1760107204458057500,10.834057373046875,0.09487931430339813,0.34825748205184937,-0.25638633966445923
1760107204468122400,10.844122314453125,0.18686437606811523,0.28101933002471924,-0.2660712003707886
1760107204478187300,10.854187255859374,0.2658918797969818,0.1772313266992569,-0.2620699107646942
1760107204488252400,10.86425244140625,0.3239208161830902,0.09390287846326828,-0.20518451929092407
1760107204498318300,10.874318359375,0.3484022617340088,0.04420541226863861,-0.09909550845623016
1760107204508383200,10.88438330078125,0.3558140993118286,0.02601601928472519,0.03317277878522873
1760107204518448400,10.894448486328125,0.33900949358940125,0.023531045764684677,0.1252404749393463
1760107204528513500,10.904513427734376,0.2908869683742523,0.01438229065388441,0.15323002636432648
1760107204538578200,10.914578125,0.22558869421482086,0.030254114419221878,0.09385309368371964
1760107204548643300,10.924643310546875,0.15683919191360474,0.045711103826761246,-0.03652328625321388
1760107204558709500,10.93470947265625,0.10217951238155365,0.05677444115281105,-0.20236636698246002
1760107204568774100,10.944774169921875,0.06122515723109245,0.04957965016365051,-0.36340320110321045
1760107204578839300,10.95483935546875,0.04509495571255684,0.04080120474100113,-0.4742260277271271
1760107204588904400,10.964904541015626,0.060227300971746445,0.02863561548292637,-0.5113239288330078
1760107204598969300,10.97496923828125,0.07573269307613373,0.0016639307141304016,-0.47171324491500854
1760107204609034200,10.9850341796875,0.07590606063604355,-0.01483248732984066,-0.3639955520629883
1760107204619100400,10.995100341796874,0.054719895124435425,-0.01829681172966957,-0.20970943570137024
1760107204629165300,11.005165283203125,0.01135723851621151,0.030709348618984222,-0.040084708482027054
1760107204639230200,11.015230224609375,-0.04475168138742447,0.09915661066770554,0.09895870834589005
1760107204649295400,11.02529541015625,-0.0855310708284378,0.12951691448688507,0.1729820817708969
1760107204659360500,11.035360595703125,-0.11018259823322296,0.10741207003593445,0.16326823830604553
1760107204669425200,11.045425048828125,-0.1136963739991188,0.07130014151334763,0.08913782238960266
1760107204679490300,11.055490234375,-0.09959415346384048,0.02246176451444626,-0.011047146283090115
1760107204689556500,11.065556396484375,-0.07440890371799469,-0.005663345102220774,-0.09625258296728134
1760107204699621400,11.075621337890626,-0.05826767906546593,0.011711036786437035,-0.14244922995567322
1760107204709686300,11.085686279296874,-0.059396594762802124,0.040299803018569946,-0.14171738922595978
1760107204719751400,11.09575146484375,-0.07774586975574493,0.06272504478693008,-0.10144553333520889
1760107204729816300,11.10581640625,-0.08369696885347366,0.08361594378948212,-0.03559115156531334
1760107204739881200,11.115881103515624,-0.08162649720907211,0.061949826776981354,0.03726787120103836
1760107204749947400,11.125947509765625,-0.0842510387301445,0.00289209745824337,0.10982809215784073
1760107204760012300,11.13601220703125,-0.09176222234964371,-0.06005224585533142,0.17027464509010315
1760107204770077200,11.1460771484375,-0.09724487364292145,-0.11478659510612488,0.2199402153491974
1760107204780142300,11.156142333984375,-0.10287743806838989,-0.1722823828458786,0.24504108726978302
1760107204790207500,11.16620751953125,-0.11308453232049942,-0.21213658154010773,0.243193119764328
1760107204800272100,11.176272216796875,-0.11628561466932297,-0.23237623274326324,0.2315349280834198
1760107204810338300,11.18633837890625,-0.09933992475271225,-0.23210245370864868,0.21822232007980347
1760107204820403500,11.196403564453124,-0.07059162855148315,-0.21259772777557373,0.21690379083156586
1760107204830468400,11.20646826171875,-0.05832298472523689,-0.16076622903347015,0.231222003698349
1760107204840533200,11.216533203125,-0.058358266949653625,-0.11142800748348236,0.2356519252061844
1760107204850598400,11.226598388671874,-0.06269815564155579,-0.09419708698987961,0.2319972664117813
1760107204860663300,11.236663330078125,-0.08465131372213364,-0.1058088168501854,0.21352384984493256
1760107204870729500,11.2467294921875,-0.12580114603042603,-0.14612720906734467,0.19227369129657745
1760107204880794400,11.25679443359375,-0.1843671351671219,-0.21600985527038574,0.1712333858013153
1760107204890859300,11.266859375,-0.24284854531288147,-0.25563928484916687,0.12650907039642334
1760107204900924400,11.27692431640625,-0.3012227714061737,-0.28690803050994873,0.05922643095254898
1760107204910989300,11.2869892578125,-0.3376108705997467,-0.31635406613349915,-0.019221236929297447
1760107204921054500,11.297054443359375,-0.33899080753326416,-0.2993191182613373,-0.09243317693471909
1760107204931120400,11.307120361328124,-0.3253037631511688,-0.2803417146205902,-0.1439480483531952
1760107204941185300,11.317185302734375,-0.30238592624664307,-0.23552656173706055,-0.15327976644039154
1760107204951250400,11.32725048828125,-0.2785937786102295,-0.17193984985351562,-0.11841151863336563
1760107204961315300,11.3373154296875,-0.2375924438238144,-0.1178227886557579,-0.029986100271344185
1760107204971380200,11.347380126953125,-0.17495942115783691,-0.06253237277269363,0.08641534298658371
1760107204981445400,11.3574453125,-0.1309736967086792,-0.0638183131814003,0.199142724275589
1760107204991510300,11.36751025390625,-0.10420947521924973,-0.1371159553527832,0.27531659603118896
1760107205001576400,11.377576416015625,-0.07559774816036224,-0.19072847068309784,0.32610902190208435
1760107205011641300,11.387641357421876,-0.06857818365097046,-0.1231294497847557,0.33101242780685425
1760107205021706200,11.397706298828124,-0.1177554577589035,0.0489012636244297,0.2725270092487335
1760107205031771400,11.407771484375,-0.19610485434532166,0.2562115490436554,0.11457892507314682
1760107205041836300,11.417836181640626,-0.24427130818367004,0.35820272564888,-0.14025039970874786
1760107205051901400,11.4279013671875,-0.27048373222351074,0.27816489338874817,-0.41492804884910583
1760107205061967400,11.43796728515625,-0.2805597484111786,0.1521584540605545,-0.6315577030181885
1760107205072032300,11.4480322265625,-0.29293838143348694,0.01908961683511734,-0.7381041049957275
1760107205082097400,11.458097412109375,-0.3056425452232361,-0.08111612498760223,-0.7394328713417053
1760107205092162300,11.468162353515625,-0.3533909022808075,-0.1579113006591797,-0.6557621955871582
1760107205102227200,11.478227294921876,-0.401543527841568,-0.18128466606140137,-0.5132415890693665
1760107205112292400,11.488292236328125,-0.4375087022781372,-0.15109507739543915,-0.32064366340637207
1760107205122358300,11.498358154296875,-0.46215569972991943,-0.047240354120731354,-0.11216741800308228
1760107205132423400,11.50842333984375,-0.4842037558555603,0.0788739025592804,0.07632393389940262
1760107205142488300,11.51848828125,-0.47517091035842896,0.16870778799057007,0.20040631294250488
1760107205152553200,11.52855322265625,-0.4180471897125244,0.16349224746227264,0.26153597235679626
1760107205162618400,11.538618408203124,-0.31293225288391113,0.10438498854637146,0.28277653455734253
1760107205172683300,11.548683349609375,-0.1973569244146347,0.03898308053612709,0.2862021327018738
1760107205182749200,11.558749267578126,-0.11094409227371216,-0.020211312919855118,0.25949418544769287
1760107205192814300,11.568814453125,-0.07887537032365799,-0.05998535454273224,0.18285320699214935
1760107205202879500,11.57887939453125,-0.0860048234462738,-0.11355679482221603,0.07345393300056458
1760107205212944400,11.5889443359375,-0.10260537266731262,-0.14274051785469055,-0.034252021461725235
1760107205223009300,11.59900927734375,-0.13500183820724487,-0.11627770215272903,-0.11453603208065033
1760107205233074400,11.609074462890625,-0.18870048224925995,-0.07487726211547852,-0.16211287677288055
1760107205243140900,11.619140869140624,-0.24142654240131378,-0.06419825553894043,-0.1896638125181198
1760107205253206000,11.6292060546875,-0.2754686772823334,-0.09097953885793686,-0.20935389399528503
1760107205263271000,11.63927099609375,-0.27741339802742004,-0.13076600432395935,-0.214981347322464
1760107205273335800,11.649335693359374,-0.2691035270690918,-0.16829314827919006,-0.19732218980789185
1760107205283401000,11.65940087890625,-0.24035856127738953,-0.18016460537910461,-0.14676737785339355
1760107205293465900,11.6694658203125,-0.19124561548233032,-0.14975504577159882,-0.07609853148460388
1760107205303531000,11.679531005859374,-0.13626353442668915,-0.09679543972015381,0.01017838902771473
1760107205313597000,11.689596923828125,-0.0922984853386879,-0.021859413012862206,0.08725400269031525
1760107205323662000,11.699662109375,-0.07624239474534988,0.048939622938632965,0.1288643479347229
1760107205333727000,11.70972705078125,-0.07703575491905212,0.09328657388687134,0.1281152069568634
1760107205343791900,11.7197919921875,-0.07885026186704636,0.11353708058595657,0.10177554190158844
1760107205353857000,11.72985693359375,-0.06604152172803879,0.12877196073532104,0.07105491310358047
1760107205363922000,11.739921875,-0.04920881614089012,0.10241527110338211,0.05172714218497276
1760107205373987800,11.74998779296875,-0.023663775995373726,0.04634374752640724,0.062270063906908035
1760107205384053000,11.760052978515626,-0.012073682621121407,0.0009973878040909767,0.09569543600082397
1760107205394118100,11.7701181640625,-0.007513019721955061,-0.021200593560934067,0.13105767965316772
1760107205404182800,11.780182861328125,-0.014686429873108864,-0.025644786655902863,0.16059336066246033
1760107205414248000,11.790248046875,-0.018726978451013565,-0.01876344345510006,0.16651304066181183
1760107205424313000,11.80031298828125,-0.03795823082327843,-0.012014845386147499,0.15264403820037842
1760107205434378800,11.810378662109375,-0.06409981846809387,-0.006729269400238991,0.12050313502550125
1760107205444444000,11.82044384765625,-0.09738059341907501,-0.005770503543317318,0.08746600151062012
1760107205454509000,11.830509033203125,-0.12702077627182007,-0.011717608198523521,0.0627683773636818
1760107205464574000,11.840573974609375,-0.13602623343467712,-0.020322829484939575,0.05574965849518776
1760107205474638800,11.850638916015624,-0.11942461133003235,-0.02842523157596588,0.07259628176689148
1760107205484704000,11.8607041015625,-0.08763913065195084,-0.031526461243629456,0.10796865075826645
1760107205494769000,11.870768798828125,-0.055844977498054504,-0.04937789589166641,0.14387312531471252
1760107205504834800,11.880834716796874,-0.03548921272158623,-0.09119489043951035,0.17776669561862946
1760107205514900000,11.89089990234375,-0.01830064132809639,-0.1304626613855362,0.20487235486507416
1760107205524965000,11.900965087890626,-0.015031281858682632,-0.17128700017929077,0.229774609208107
1760107205535030000,11.911030029296874,-0.023100925609469414,-0.19878944754600525,0.23819659650325775
1760107205545095000,11.921094970703125,-0.04416884109377861,-0.21734844148159027,0.24442963302135468
1760107205555160000,11.93116015625,-0.06758096069097519,-0.198630690574646,0.24991361796855927
1760107205565225700,11.941225830078125,-0.088844895362854,-0.1768663078546524,0.242533341050148
1760107205575291000,11.951290771484375,-0.09463434666395187,-0.18320409953594208,0.22104908525943756
1760107205585356000,11.96135595703125,-0.08314178138971329,-0.20397326350212097,0.18685373663902283
1760107205595421000,11.9714208984375,-0.04870285093784332,-0.18320780992507935,0.14549191296100616
1760107205605485800,11.98148583984375,0.00021141674369573593,-0.13172103464603424,0.10336893796920776
1760107205615551000,11.991551025390624,0.05959005653858185,-0.1113784909248352,0.07439800351858139
1760107205625617200,12.0016171875,0.08148186653852463,-0.14085763692855835,0.07639716565608978
1760107205635681800,12.011681884765625,0.09130573272705078,-0.1593911051750183,0.10947389155626297
1760107205645747000,12.021746826171874,0.0964236855506897,-0.1598384976387024,0.16063539683818817
1760107205655812000,12.03181201171875,0.08580459654331207,-0.15860812366008759,0.20704789459705353
1760107205665877000,12.041876953125,0.04386591538786888,-0.18762728571891785,0.21183063089847565
1760107205675942000,12.05194189453125,0.02238139882683754,-0.21821261942386627,0.1768510788679123
1760107205686007000,12.062007080078125,0.014618098735809326,-0.25423765182495117,0.10184063762426376
1760107205696073000,12.072072998046876,-0.013726722449064255,-0.28072094917297363,-0.019743045791983604
1760107205706137900,12.082137939453125,-0.02734159119427204,-0.23949480056762695,-0.1770508736371994
1760107205716203000,12.092203125,-0.029644958674907684,-0.16994181275367737,-0.351489782333374
1760107205726268200,12.10226806640625,-0.006461224518716335,-0.08629096299409866,-0.5236650109291077
1760107205736332800,12.112332763671875,0.026022417470812798,-0.006892278324812651,-0.6508458852767944
1760107205746398000,12.12239794921875,0.05804508179426193,0.0670296847820282,-0.7041346430778503
1760107205756464000,12.132464111328124,0.0848521888256073,0.12116190791130066,-0.6795081496238708
1760107205766528800,12.14252880859375,0.09970229864120483,0.15211260318756104,-0.5753797888755798
1760107205776594000,12.152593994140625,0.10994667559862137,0.1724807322025299,-0.42823296785354614
1760107205786659000,12.1626591796875,0.11967938393354416,0.1726446896791458,-0.25982704758644104
1760107205796724000,12.172723876953125,0.1305304318666458,0.12786921858787537,-0.09230916947126389
1760107205806788900,12.182788818359375,0.13764749467372894,0.07484365999698639,0.03841269761323929
1760107205816855000,12.19285498046875,0.13824111223220825,0.03449651226401329,0.12983529269695282
1760107205826920000,12.202919921875,0.13216039538383484,-0.017503388226032257,0.15160492062568665
1760107205836984800,12.21298486328125,0.12797416746616364,-0.06071876734495163,0.12454772740602493
1760107205847050000,12.223050048828124,0.13277927041053772,-0.08397115767002106,0.05801629275083542
1760107205857115100,12.233115234375,0.14881150424480438,-0.08731529116630554,-0.024490300565958023
1760107205867179800,12.2431796875,0.17876140773296356,-0.08310909569263458,-0.1077745333313942
1760107205877245000,12.253244873046874,0.21170258522033691,-0.07818171381950378,-0.16123643517494202
1760107205887311000,12.26331103515625,0.24057313799858093,-0.08305850625038147,-0.18687330186367035
1760107205897376000,12.2733759765625,0.2548151910305023,-0.11732859164476395,-0.18160822987556458
1760107205907441000,12.28344091796875,0.24996976554393768,-0.1553369164466858,-0.16375990211963654
1760107205917506000,12.293506103515625,0.21860969066619873,-0.1902989000082016,-0.14205753803253174
1760107205927571000,12.303571044921876,0.18616153299808502,-0.19579410552978516,-0.11670571565628052
1760107205937635800,12.3136357421875,0.1614828258752823,-0.1675209105014801,-0.09604304283857346
1760107205947702000,12.323701904296875,0.14454494416713715,-0.12818890810012817,-0.07697464525699615
