time,seconds_elapsed,z,y,x
1760107193684527900,0.06052783203125,0.06975804269313812,-0.02021525613963604,0.5007078647613525
1760107193694593000,0.070593017578125,0.06605145335197449,0.0010040117194876075,0.5639243721961975
1760107193704658000,0.080657958984375,0.06639793515205383,0.03617558255791664,0.6770623922348022
1760107193714722800,0.090722900390625,0.05878821387887001,0.01823519729077816,0.8062626719474792
1760107193724789000,0.1007890625,0.03434598818421364,-0.02045414224267006,0.9369349479675293
1760107193734854000,0.11085400390625,0.016338227316737175,-0.06079037860035896,1.029758334159851
1760107193744919000,0.1209189453125,0.020650416612625122,-0.08364882320165634,1.0841984748840332
1760107193754984000,0.13098388671875,0.06844217330217361,-0.10528700798749924,1.0989958047866821
1760107193765049000,0.141049072265625,0.13561321794986725,-0.13720498979091644,1.0756456851959229
1760107193775115000,0.151114990234375,0.14840944111347198,-0.14462988078594208,0.9696660041809082
1760107193785180000,0.161179931640625,0.05768619850277901,-0.08422273397445679,0.7201656103134155
1760107193795245000,0.1712451171875,-0.030106503516435623,-0.009493370540440083,0.3782048225402832
1760107193805310000,0.18131005859375,-0.03479499742388725,0.09009713679552078,0.01955372840166092
1760107193815376100,0.191376220703125,0.009079515002667904,0.17025242745876312,-0.3158687353134155
1760107193825440800,0.201440673828125,0.04777124896645546,0.18660956621170044,-0.5851811766624451
1760107193835506000,0.211505859375,0.06767092645168304,0.15721331536769867,-0.7517445683479309
1760107193845571000,0.221571044921875,0.06947708129882812,0.11634524911642075,-0.7855401039123535
1760107193855636000,0.231635986328125,0.040114663541316986,0.09162978827953339,-0.7210527062416077
1760107193865702000,0.241701904296875,-0.013859623111784458,0.07032769173383713,-0.604612410068512
1760107193875767000,0.25176708984375,-0.06022525578737259,0.04561169445514679,-0.4582325518131256
1760107193885832200,0.261832275390625,-0.08322538435459137,0.0492708757519722,-0.3105333745479584
1760107193895896800,0.271896728515625,-0.09833163022994995,0.05068208649754524,-0.17790767550468445
1760107193905963000,0.281962890625,-0.11174970120191574,0.034456778317689896,-0.08649041503667831
1760107193916028000,0.29202783203125,-0.12582610547542572,0.005017129238694906,-0.05246906727552414
1760107193926092800,0.3020927734375,-0.13368083536624908,-0.005286640953272581,-0.06637103110551834
1760107193936158000,0.312157958984375,-0.11582113802433014,-0.015457252971827984,-0.11011958122253418
1760107193946223000,0.32222314453125,-0.07693153619766235,-0.01920298859477043,-0.14496465027332306
1760107193956289000,0.3322890625,-0.0409221313893795,0.011411911807954311,-0.15912547707557678
1760107193966354000,0.34235400390625,-0.016097476705908775,0.04871880263090134,-0.13465075194835663
1760107193976419000,0.352419189453125,-0.0012263857061043382,0.07421617209911346,-0.09654545038938522
1760107193986484000,0.36248388671875,-0.017237309366464615,0.08033078908920288,-0.0730169489979744
1760107193996550000,0.3725498046875,-0.052143894135951996,0.07847057282924652,-0.08035556226968765
1760107194006615000,0.382614990234375,-0.07939495891332626,0.051045872271060944,-0.12267398834228516
1760107194016680000,0.392679931640625,-0.09283912926912308,0.014994395896792412,-0.17288203537464142
1760107194026744800,0.402744873046875,-0.08940497785806656,-0.008673649281263351,-0.22358807921409607
1760107194036810000,0.41281005859375,-0.07388940453529358,-0.04658481106162071,-0.25760358572006226
1760107194046876000,0.4228759765625,-0.044372256845235825,-0.08730641007423401,-0.2627083361148834
1760107194056941000,0.432941162109375,-0.012411928735673428,-0.11067698150873184,-0.2578680217266083
1760107194067006000,0.443005859375,0.001341966912150383,-0.1051514521241188,-0.24893338978290558
1760107194077070800,0.45307080078125,0.006385994143784046,-0.06957055628299713,-0.25653618574142456
1760107194087137000,0.463136962890625,0.0025712819769978523,-0.02263686992228031,-0.28057360649108887
1760107194097202200,0.4732021484375,0.010974354110658169,0.004703941289335489,-0.3113267123699188
1760107194107266800,0.483266845703125,0.041505366563797,0.008262190967798233,-0.3331556022167206
1760107194117332000,0.49333203125,0.0780830830335617,-0.01630094274878502,-0.3175675868988037
1760107194127397000,0.503397216796875,0.1004674881696701,-0.0494232103228569,-0.2682375907897949
1760107194137462800,0.513462890625,0.11157765984535217,-0.07710650563240051,-0.19183547794818878
1760107194147528000,0.52352783203125,0.10711260139942169,-0.0871034786105156,-0.09707728028297424
1760107194157593000,0.533593017578125,0.07956859469413757,-0.08345707505941391,-0.01272911112755537
1760107194167657700,0.54365771484375,0.05614955350756645,-0.0688357874751091,0.05245655030012131
1760107194177724000,0.553723876953125,0.03987817466259003,-0.029212480410933495,0.08742465078830719
1760107194187789000,0.5637890625,0.025539714843034744,0.023395869880914688,0.09788341820240021
1760107194197854000,0.57385400390625,-0.01570199802517891,0.06763496994972229,0.061884671449661255
1760107194207918800,0.5839189453125,-0.051896754652261734,0.0739077776670456,-0.022426478564739227
1760107194217984000,0.59398388671875,-0.04572940617799759,0.05637672170996666,-0.10867028683423996
1760107194228049700,0.604049560546875,-0.013609551824629307,0.04743169620633125,-0.17117521166801453
1760107194238114600,0.614114501953125,0.015175756998360157,0.019340675324201584,-0.19730348885059357
1760107194248179700,0.6241796875,0.016684437170624733,-0.004728442523628473,-0.1862068921327591
1760107194258244900,0.634244873046875,-0.00911333691328764,-0.003920439630746841,-0.15176209807395935
1760107194268309500,0.6443095703125,-0.03844086453318596,0.012014584615826607,-0.11492658406496048
1760107194278375700,0.654375732421875,-0.05158117040991783,0.024292556568980217,-0.08509065955877304
1760107194288440800,0.66444091796875,-0.05781855806708336,0.041672080755233765,-0.055697083473205566
1760107194298505700,0.674505615234375,-0.05361662432551384,0.06579605489969254,-0.03604774922132492
1760107194308570600,0.684570556640625,-0.031258851289749146,0.0701356753706932,-0.01793132908642292
1760107194318636500,0.694636474609375,0.0016498282784596086,0.05702147260308266,0.0017475662752985954
1760107194328701700,0.70470166015625,0.04067046567797661,0.04409635439515114,0.018483135849237442
1760107194338766800,0.714766845703125,0.07302414625883102,0.02262355387210846,0.03429166227579117
1760107194348831700,0.724831787109375,0.10391148179769516,-0.016038620844483376,0.0355105884373188
1760107194358896600,0.734896728515625,0.11185702681541443,-0.04174211993813515,0.04430567845702171
1760107194368962800,0.744962890625,0.11579024791717529,-0.02798689343035221,0.047508131712675095
1760107194379027700,0.75502783203125,0.11110388487577438,0.0009217200567945838,0.04320978745818138
1760107194389092600,0.765092529296875,0.12015090882778168,0.031380292028188705,0.04250485077500343
1760107194399157800,0.77515771484375,0.13848917186260223,0.06716092675924301,0.049805641174316406
1760107194409223700,0.7852236328125,0.16546805202960968,0.09302181750535965,0.05011536553502083
1760107194419288600,0.79528857421875,0.1838342845439911,0.08868353068828583,0.05374205857515335
1760107194429353700,0.805353759765625,0.17660832405090332,0.06663016229867935,0.046728890389204025
1760107194439419000,0.8154189453125,0.15269899368286133,0.046244993805885315,0.024992700666189194
1760107194449483500,0.8254833984375,0.13948333263397217,0.038301315158605576,0.01776035502552986
1760107194459549700,0.8355498046875,0.1357083022594452,0.04451446980237961,0.029997846111655235
1760107194469614800,0.84561474609375,0.13006798923015594,0.04283374920487404,0.0596766471862793
1760107194479679700,0.8556796875,0.12734757363796234,0.027172232046723366,0.10167896002531052
1760107194489744600,0.86574462890625,0.12329237163066864,0.033363282680511475,0.16820871829986572
1760107194499810800,0.875810791015625,0.10846389085054398,0.04679546877741814,0.2332468330860138
1760107194509875700,0.885875732421875,0.08792959153652191,0.06577368825674057,0.2802385687828064
1760107194519940600,0.895940673828125,0.06352917104959488,0.07393760979175568,0.29213038086891174
1760107194530005800,0.906005859375,0.04357943683862686,0.06414463371038437,0.2747543454170227
1760107194540070700,0.916070556640625,0.024087226018309593,0.039689090102910995,0.23419678211212158
1760107194550136800,0.92613671875,0.0009656621841713786,0.0073175677098333836,0.1659058779478073
1760107194560201700,0.93620166015625,-0.012546151876449585,-0.01720082387328148,0.08610691875219345
1760107194570266600,0.9462666015625,-0.005268265027552843,-0.003922037314623594,0.02586648426949978
1760107194580331800,0.956331787109375,0.00746217742562294,0.04801999032497406,-0.0020663465838879347
1760107194590396700,0.966396728515625,0.029746176674962044,0.120733343064785,0.015752332285046577
1760107194600462600,0.976462646484375,0.049552105367183685,0.18262706696987152,0.07070426642894745
1760107194610527700,0.98652783203125,0.0656312108039856,0.23828740417957306,0.14116324484348297
1760107194620592600,0.996592529296875,0.07558850198984146,0.2764939069747925,0.2128765881061554
1760107194630657800,1.00665771484375,0.08959858864545822,0.29049840569496155,0.2633621394634247
1760107194640723700,1.0167236328125,0.09497258812189102,0.23872709274291992,0.2661190330982208
1760107194650788900,1.026788818359375,0.09066572040319443,0.11963532119989395,0.23836356401443481
1760107194660853500,1.036853515625,0.08853013068437576,-0.027658525854349136,0.1880122423171997
1760107194670918700,1.046918701171875,0.09430652856826782,-0.16021816432476044,0.13415993750095367
1760107194680983800,1.05698388671875,0.11027510464191437,-0.2581993341445923,0.09625755995512009
1760107194691049700,1.0670498046875,0.1384715884923935,-0.2852303981781006,0.08092920482158661
1760107194701114600,1.077114501953125,0.17368124425411224,-0.2569130063056946,0.08609307557344437
1760107194711179800,1.0871796875,0.20861206948757172,-0.16226640343666077,0.10044271498918533
1760107194721245000,1.097244873046875,0.2352716326713562,-0.03904620185494423,0.11914023756980896
1760107194731310600,1.107310546875,0.24488218128681183,0.05561079829931259,0.12841549515724182
1760107194741375700,1.117375732421875,0.24924205243587494,0.12535631656646729,0.13402864336967468
1760107194751440600,1.127440673828125,0.24141554534435272,0.14471431076526642,0.13482093811035156
1760107194761505500,1.137505615234375,0.22760039567947388,0.1307060867547989,0.13789768517017365
1760107194771570700,1.14757080078125,0.21404197812080383,0.11353641748428345,0.14338698983192444
1760107194781636600,1.15763671875,0.19671492278575897,0.0775350034236908,0.1468363106250763
1760107194791701800,1.16770166015625,0.18883809447288513,0.03156831115484238,0.13177160918712616
1760107194801766700,1.1777666015625,0.19771787524223328,-0.03689942881464958,0.11084422469139099
1760107194811831800,1.187831787109375,0.2165094017982483,-0.09353740513324738,0.10189680010080338
1760107194821896700,1.197896728515625,0.2364884316921234,-0.1099664494395256,0.11236649006605148
1760107194831962600,1.207962646484375,0.2247590720653534,-0.09522665292024612,0.13856028020381927
1760107194842027800,1.21802783203125,0.19719775021076202,-0.05877676233649254,0.1597534418106079
1760107194852092700,1.2280927734375,0.14549994468688965,-0.015477493405342102,0.15482953190803528
1760107194862157800,1.23815771484375,0.08834903687238693,0.005458415020257235,0.10366514325141907
1760107194872223500,1.248223388671875,0.055696818977594376,-0.003992078360170126,0.018062356859445572
1760107194882288600,1.25828857421875,0.03645707666873932,-0.031735025346279144,-0.0671558678150177
1760107194892353800,1.268353759765625,0.03009345382452011,-0.03224954754114151,-0.12694010138511658
1760107194902418700,1.278418701171875,0.03304396942257881,-0.027352795004844666,-0.14991545677185059
1760107194912483600,1.288483642578125,0.038429681211709976,-0.010460097342729568,-0.12917715311050415
1760107194922549800,1.2985498046875,0.04162866994738579,0.018557704985141754,-0.0808304026722908
1760107194932615000,1.308614990234375,0.03377021476626396,0.04002624377608299,-0.032460737973451614
1760107194942679600,1.318679443359375,0.01932336390018463,0.05404885485768318,-0.0044378917664289474
1760107194952744700,1.32874462890625,0.013756824657320976,0.07247287034988403,0.003849599277600646
1760107194962811000,1.338810791015625,0.008126902393996716,0.07500287145376205,0.0023374564480036497
1760107194972875500,1.34887548828125,0.00007217166421469301,0.06687863171100616,-0.01404790859669447
1760107194982940700,1.358940673828125,-0.005336175672709942,0.03851756453514099,-0.025501897558569908
1760107194993005800,1.369005859375,-0.003318032482638955,0.004026699345558882,-0.026558639481663704
1760107195003070700,1.37907080078125,-0.003026682650670409,-0.028318990021944046,-0.01966851018369198
1760107195013136600,1.38913671875,-0.009131979197263718,-0.05329065024852753,-0.011713913641870022
1760107195023201800,1.399201904296875,-0.01769830286502838,-0.0563327819108963,-0.00986434891819954
1760107195033266700,1.4092666015625,-0.02039209008216858,-0.046240463852882385,-0.012985839508473873
1760107195043331600,1.41933154296875,-0.03238190710544586,-0.03628477081656456,-0.02936135046184063
1760107195053396700,1.429396728515625,-0.03357766568660736,-0.03987577557563782,-0.04027019068598747
1760107195063462700,1.439462646484375,-0.027470240369439125,-0.04561781883239746,-0.03922596573829651
1760107195073527800,1.44952783203125,-0.015916382893919945,-0.04376798868179321,-0.015911854803562164
1760107195083592700,1.4595927734375,-0.006430468522012234,-0.04283934086561203,0.01756834052503109
1760107195093657900,1.469657958984375,-0.020984644070267677,-0.050459444522857666,0.051712993532419205
1760107195103723800,1.479723876953125,-0.04788816347718239,-0.06226550415158272,0.07041770964860916
1760107195113788700,1.48978857421875,-0.07986953109502792,-0.07065792381763458,0.0615142285823822
1760107195123853600,1.499853515625,-0.10721433907747269,-0.06990611553192139,0.03476650267839432
1760107195133918700,1.509918701171875,-0.11777190864086151,-0.0623408704996109,0.007209975738078356
1760107195143983600,1.519983642578125,-0.12112775444984436,-0.06972289085388184,-0.014119281433522701
1760107195154049500,1.530049560546875,-0.11788535863161087,-0.09401677548885345,-0.016343019902706146
1760107195164114700,1.54011474609375,-0.12243296951055527,-0.11558704823255539,-0.0003834952076431364
1760107195174179800,1.550179931640625,-0.1362057775259018,-0.1239914521574974,0.029822610318660736
1760107195184244700,1.56024462890625,-0.14449912309646606,-0.12202337384223938,0.06953007727861404
1760107195194309600,1.5703095703125,-0.1406117081642151,-0.11022210866212845,0.11375772207975388
1760107195204375800,1.580375732421875,-0.14353346824645996,-0.10492801666259766,0.15784528851509094
1760107195214440700,1.590440673828125,-0.1742389053106308,-0.09667700529098511,0.18385346233844757
1760107195224505900,1.600505859375,-0.21002620458602905,-0.09104388952255249,0.18919523060321808
1760107195234570800,1.61057080078125,-0.2389550507068634,-0.06551429629325867,0.17042472958564758
1760107195244636700,1.62063671875,-0.24949131906032562,-0.06201969459652901,0.1373639851808548
1760107195254701800,1.630701904296875,-0.24679327011108398,-0.05760443955659866,0.10423186421394348
1760107195264767000,1.64076708984375,-0.22299127280712128,-0.09274085611104965,0.09377389401197433
1760107195274832000,1.650831787109375,-0.20310571789741516,-0.16533729434013367,0.11338408291339874
1760107195284896800,1.660896728515625,-0.19948513805866241,-0.24708116054534912,0.156236469745636
1760107195294963000,1.670962890625,-0.21757866442203522,-0.3004932403564453,0.209749236702919
1760107195305027800,1.68102783203125,-0.24514344334602356,-0.2880951762199402,0.24903032183647156
1760107195315092700,1.6910927734375,-0.27522996068000793,-0.22027085721492767,0.25765231251716614
1760107195325158000,1.701157958984375,-0.29999709129333496,-0.1401515156030655,0.22451460361480713
1760107195335222800,1.711222900390625,-0.33267223834991455,-0.08807100355625153,0.15341272950172424
1760107195345288700,1.721288818359375,-0.3617744445800781,-0.060492902994155884,0.044133372604846954
1760107195355353900,1.731353759765625,-0.37740668654441833,-0.07592113316059113,-0.084206223487854
1760107195365419000,1.7414189453125,-0.3828214108943939,-0.1281566321849823,-0.21803486347198486
1760107195375483600,1.751483642578125,-0.37584924697875977,-0.17869970202445984,-0.34691134095191956
1760107195385549800,1.7615498046875,-0.35678714513778687,-0.19891496002674103,-0.46487900614738464
1760107195395615000,1.771614990234375,-0.3133360743522644,-0.19348929822444916,-0.5205531716346741
1760107195405679900,1.781679931640625,-0.24668967723846436,-0.16996081173419952,-0.5112566351890564
1760107195415744800,1.791744873046875,-0.18383987247943878,-0.10569127649068832,-0.42634493112564087
1760107195425810000,1.801809814453125,-0.1240532398223877,0.014127803035080433,-0.2545049786567688
1760107195435875800,1.811875732421875,-0.0873575434088707,0.14697906374931335,-0.03678411245346069
1760107195445940700,1.821940673828125,-0.08980818092823029,0.2255108803510666,0.18471525609493256
1760107195456006000,1.832005859375,-0.12526844441890717,0.23248037695884705,0.3691849708557129
1760107195466070800,1.84207080078125,-0.16936293244361877,0.165218785405159,0.4911377727985382
1760107195476135700,1.8521357421875,-0.21052661538124084,0.048717472702264786,0.5330061316490173
1760107195486201900,1.862201904296875,-0.24842126667499542,-0.07629556953907013,0.5166444778442383
1760107195496266800,1.872266845703125,-0.26418957114219666,-0.14747308194637299,0.45086225867271423
1760107195506332000,1.882331787109375,-0.2637767791748047,-0.13952620327472687,0.3571762442588806
1760107195516396800,1.892396728515625,-0.26560238003730774,-0.08092920482158661,0.24625451862812042
1760107195526462700,1.902462646484375,-0.2716197967529297,-0.0020937772933393717,0.1234484314918518
1760107195536528000,1.91252783203125,-0.28266552090644836,0.04872705787420273,0.010259561240673065
1760107195546592800,1.9225927734375,-0.29791131615638733,0.09536992758512497,-0.07172399014234543
1760107195556657700,1.93265771484375,-0.31892234086990356,0.12020816653966904,-0.11055820435285568
1760107195566722800,1.942722900390625,-0.3445451259613037,0.10724230110645294,-0.11493723839521408
1760107195576789000,1.9527890625,-0.36512017250061035,0.053101036697626114,-0.09969516843557358
1760107195586853600,1.962853515625,-0.37544873356819153,-0.02329600229859352,-0.07944156229496002
1760107195596918800,1.972918701171875,-0.37967514991760254,-0.07645749300718307,-0.06237735599279404
1760107195606984000,1.98298388671875,-0.36211106181144714,-0.08243149518966675,-0.05325629562139511
1760107195617048800,1.993048828125,-0.32326728105545044,-0.046478819102048874,-0.047500673681497574
1760107195627114800,2.00311474609375,-0.2787035405635834,0.029868150129914284,-0.03640754148364067
1760107195637180000,2.013179931640625,-0.2241279035806656,0.139536052942276,-0.00865926779806614
1760107195647245000,2.0232451171875,-0.1742335855960846,0.2099316567182541,0.013942447490990162
1760107195657309700,2.033309814453125,-0.1341884285211563,0.20367296040058136,0.022333268076181412
1760107195667375900,2.0433759765625,-0.1166834756731987,0.13712748885154724,0.011231348849833012
1760107195677440800,2.053440673828125,-0.11456972360610962,0.05991126969456673,-0.018512697890400887
1760107195687505700,2.063505615234375,-0.13756504654884338,0.022551115602254868,-0.06670526415109634
1760107195697570800,2.07357080078125,-0.15430888533592224,-0.0252225324511528,-0.12716540694236755
1760107195707636000,2.083635986328125,-0.1556607037782669,-0.04313894733786583,-0.1782512366771698
1760107195717702000,2.093701904296875,-0.15999312698841095,0.01816701889038086,-0.20546980202198029
1760107195727766800,2.103766845703125,-0.16599322855472565,0.12260740995407104,-0.22193293273448944
1760107195737832000,2.11383203125,-0.16371090710163116,0.20087425410747528,-0.22561128437519073
1760107195747896800,2.123896728515625,-0.14240454137325287,0.24175883829593658,-0.2057132124900818
1760107195757961700,2.133961669921875,-0.11012197285890579,0.2533071041107178,-0.15458238124847412
1760107195768028000,2.14402783203125,-0.08100616931915283,0.21571631729602814,-0.09040606021881104
1760107195778092800,2.1540927734375,-0.06488365679979324,0.15738429129123688,-0.021100224927067757
1760107195788158000,2.164157958984375,-0.0603962317109108,0.0974477231502533,0.030702251940965652
1760107195798222800,2.174222900390625,-0.06449297070503235,0.0659308135509491,0.04995317757129669
1760107195808287700,2.184287841796875,-0.07098469138145447,0.10886203497648239,0.01359463855624199
1760107195818354000,2.19435400390625,-0.0807395875453949,0.20779447257518768,-0.08128313720226288
1760107195828418800,2.204418701171875,-0.08518706262111664,0.3085823357105255,-0.21205686032772064
1760107195838483700,2.214483642578125,-0.09629377722740173,0.3523620367050171,-0.3400113582611084
1760107195848548900,2.224548828125,-0.08446907997131348,0.42130088806152344,-0.4365898370742798
1760107195858615000,2.234614990234375,-0.06095096841454506,0.5242680311203003,-0.46882155537605286
1760107195868679700,2.2446796875,0.014072409830987453,0.5769424438476562,-0.42087799310684204
1760107195878744800,2.254744873046875,0.10269016027450562,0.576442301273346,-0.31890368461608887
1760107195888810000,2.26481005859375,0.18083423376083374,0.5655257105827332,-0.180329829454422
1760107195898875000,2.274875,0.23987677693367004,0.5862981081008911,-0.055062185972929
1760107195908940800,2.28494091796875,0.2779000699520111,0.5410483479499817,0.016377640888094902
1760107195919006000,2.295005859375,0.29080361127853394,0.3709562420845032,0.01997264288365841
1760107195929070600,2.305070556640625,0.2840951085090637,0.11833063513040543,0.012356534600257874
1760107195939135700,2.3151357421875,0.2461506575345993,-0.10388245433568954,0.048112135380506516
1760107195949201000,2.325200927734375,0.19603101909160614,-0.2450595498085022,0.15252162516117096
1760107195959266800,2.335266845703125,0.15476614236831665,-0.2915266454219818,0.30082082748413086
1760107195969331700,2.345331787109375,0.11703474074602127,-0.27031323313713074,0.426414430141449
1760107195979396900,2.35539697265625,0.08494924753904343,-0.22997993230819702,0.4751465618610382
1760107195989462000,2.3654619140625,0.08261258900165558,-0.16974562406539917,0.4288184642791748
1760107195999526700,2.375526611328125,0.12266147136688232,-0.08945824205875397,0.3326919376850128
1760107196009592800,2.3855927734375,0.18378767371177673,0.004447212442755699,0.22211162745952606
1760107196019657700,2.39565771484375,0.24712297320365906,0.10197190195322037,0.12048273533582687
1760107196029723000,2.405722900390625,0.2862733006477356,0.15047739446163177,0.043290749192237854
1760107196039787800,2.415787841796875,0.31444022059440613,0.1295718401670456,0.010792726650834084
1760107196049853000,2.42585302734375,0.32341480255126953,0.07580980658531189,0.021949773654341698
1760107196059918800,2.4359189453125,0.308992475271225,-0.006810501683503389,0.059546418488025665
1760107196069983700,2.445983642578125,0.285013347864151,-0.08286505192518234,0.10985779017210007
1760107196080049000,2.456048828125,0.25575774908065796,-0.15461701154708862,0.13999386131763458
1760107196090113800,2.46611376953125,0.22015739977359772,-0.19381047785282135,0.1457718461751938
1760107196100180000,2.476179931640625,0.19160431623458862,-0.2038668394088745,0.14432735741138458
1760107196110244900,2.486244873046875,0.1768091320991516,-0.19076435267925262,0.12813612818717957
1760107196120309800,2.496309814453125,0.18000252544879913,-0.15439462661743164,0.12292139232158661
1760107196130375000,2.506375,0.19629786908626556,-0.09519096463918686,0.11376997828483582
1760107196140439800,2.516439697265625,0.21360255777835846,-0.01690095290541649,0.10592883080244064
1760107196150505700,2.526505615234375,0.22293055057525635,0.06536968797445297,0.07379619032144547
1760107196160571000,2.53657080078125,0.22606562077999115,0.11430713534355164,-0.0011792477453127503
1760107196170636000,2.546635986328125,0.234726220369339,0.1089528501033783,-0.08690586686134338
1760107196180700700,2.55670068359375,0.26012638211250305,0.06853564828634262,-0.14895859360694885
1760107196190765800,2.566765869140625,0.2930326759815216,0.03677612543106079,-0.15114983916282654
1760107196200832000,2.57683203125,0.33249911665916443,0.03633750230073929,-0.08463845402002335
1760107196210896600,2.586896728515625,0.37731772661209106,0.06376034021377563,0.041366081684827805
1760107196220961800,2.5969619140625,0.40798401832580566,0.10852434486150742,0.18929961323738098
1760107196231026700,2.607026611328125,0.4114096462726593,0.1585496962070465,0.32842686772346497
1760107196241091600,2.617091552734375,0.383226215839386,0.16395218670368195,0.416479229927063
1760107196251157500,2.627157470703125,0.3435400426387787,0.0980522632598877,0.44006606936454773
1760107196261222700,2.63722265625,0.3266577422618866,0.012793825939297676,0.3937792479991913
1760107196271287600,2.64728759765625,0.3032280504703522,-0.04114450514316559,0.2965206205844879
1760107196281352400,2.6573525390625,0.27850964665412903,-0.06550337374210358,0.18321669101715088
1760107196291418600,2.667418701171875,0.24973899126052856,-0.050686612725257874,0.0630229040980339
1760107196301483500,2.6774833984375,0.21298576891422272,-0.02574637532234192,-0.04467372968792915
1760107196311548400,2.68754833984375,0.16562092304229736,0.010940532200038433,-0.13783030211925507
1760107196321613600,2.697613525390625,0.13892219960689545,0.0424334779381752,-0.19638442993164062
1760107196331678700,2.7076787109375,0.1265278458595276,0.05817408859729767,-0.23122896254062653
1760107196341744600,2.71774462890625,0.12597471475601196,0.03218483552336693,-0.2401697188615799
1760107196351809500,2.7278095703125,0.11665257811546326,-0.0041156490333378315,-0.22677960991859436
1760107196361874700,2.737874755859375,0.08850403130054474,-0.014363492839038372,-0.1997850239276886
1760107196371939600,2.747939697265625,0.057921890169382095,-0.0006370281334966421,-0.17186683416366577
1760107196382004500,2.75800439453125,0.026032932102680206,0.02268986590206623,-0.15419036149978638
1760107196392070700,2.768070556640625,0.012195413932204247,0.05270209163427353,-0.14026789367198944
1760107196402135600,2.778135498046875,0.01709429919719696,0.07952544838190079,-0.12939953804016113
1760107196412200700,2.78820068359375,0.038475219160318375,0.08838579058647156,-0.12963815033435822
1760107196422265600,2.798265625,0.07055006921291351,0.07983118295669556,-0.13638047873973846
1760107196432330500,2.80833056640625,0.09860513359308243,0.06312117725610733,-0.1454453468322754
1760107196442396700,2.818396728515625,0.1082276701927185,0.05266880244016647,-0.15644046664237976
1760107196452461600,2.828461669921875,0.10585319250822067,0.04199592024087906,-0.15220418572425842
1760107196462526500,2.8385263671875,0.1089366003870964,0.03256619721651077,-0.1344030797481537
1760107196472591600,2.848591552734375,0.11989444494247437,0.02455833926796913,-0.09070993214845657
1760107196482656500,2.858656494140625,0.12804824113845825,0.031624238938093185,-0.035187017172575
1760107196492722400,2.868722412109375,0.12583808600902557,0.04085475578904152,0.0033537186682224274
1760107196502787600,2.87878759765625,0.10998642444610596,0.00996421743184328,0.017014136537909508
1760107196512852700,2.888852783203125,0.10020223259925842,-0.04038337618112564,0.010936005041003227
1760107196522917600,2.898917724609375,0.08816660940647125,-0.05535167083144188,-0.009894176386296749
1760107196532982500,2.908982421875,0.07564016431570053,-0.042621761560440063,-0.04138046130537987
1760107196543048700,2.919048583984375,0.06522028148174286,-0.038244325667619705,-0.06819157302379608
1760107196553113300,2.92911328125,0.054847802966833115,-0.054675761610269547,-0.07827217131853104
1760107196563178500,2.939178466796875,0.0412164106965065,-0.07163610309362411,-0.059063054621219635
1760107196573243600,2.94924365234375,0.01990899257361889,-0.07266301661729813,-0.025183916091918945
1760107196583308800,2.959308837890625,-0.009659817442297935,-0.06942994147539139,0.005429386626929045
1760107196593374500,2.96937451171875,-0.04351259022951126,-0.08658841997385025,0.02249918319284916
1760107196603439600,2.979439697265625,-0.06913885474205017,-0.10004857182502747,0.031154723837971687
1760107196613504800,2.9895048828125,-0.08679401874542236,-0.0947459489107132,0.03556784614920616
1760107196623569400,2.9995693359375,-0.11126793175935745,-0.10844685137271881,0.026260100305080414
1760107196633635600,3.009635498046875,-0.13763456046581268,-0.1415613889694214,0.010910704731941223
1760107196643700500,3.019700439453125,-0.15502767264842987,-0.1783822625875473,-0.009731722995638847
1760107196653765600,3.029765625,-0.1594162881374359,-0.19217343628406525,-0.02942766435444355
1760107196663830500,3.03983056640625,-0.16179156303405762,-0.17412066459655762,-0.03201492503285408
1760107196673895700,3.049895751953125,-0.16385045647621155,-0.1394314020872116,-0.019044797867536545
1760107196683961600,3.059961669921875,-0.17262662947177887,-0.09854761511087418,0.015312910079956055
1760107196694026500,3.070026611328125,-0.18807242810726166,-0.06566289812326431,0.05538230016827583
1760107196704091600,3.080091552734375,-0.20205163955688477,-0.05658232048153877,0.09338107705116272
1760107196714156500,3.090156494140625,-0.2198290377855301,-0.06680992245674133,0.12839099764823914
1760107196724221400,3.100221435546875,-0.23081377148628235,-0.08967289328575134,0.15300126373767853
1760107196734287600,3.11028759765625,-0.231607124209404,-0.11947313696146011,0.16217584908008575
1760107196744352500,3.1203525390625,-0.22179816663265228,-0.17512068152427673,0.17051741480827332
1760107196754417700,3.130417724609375,-0.20976148545742035,-0.24113884568214417,0.15554724633693695
1760107196764482600,3.140482666015625,-0.2155541330575943,-0.2965456545352936,0.1480856090784073
1760107196774547500,3.15054736328125,-0.22547946870326996,-0.3309036195278168,0.12835636734962463
1760107196784613600,3.160613525390625,-0.23440824449062347,-0.3015585243701935,0.1029125303030014
1760107196794678800,3.1706787109375,-0.24286937713623047,-0.22675351798534393,0.0697079747915268
1760107196804743400,3.180743408203125,-0.245597243309021,-0.14537930488586426,0.014122210443019867
1760107196814808600,3.19080859375,-0.2528035044670105,-0.0996118113398552,-0.055620383471250534
1760107196824873700,3.200873779296875,-0.2640071511268616,-0.08092094957828522,-0.12294483184814453
1760107196834939400,3.210939453125,-0.2708919644355774,-0.08797832578420639,-0.18530353903770447
1760107196845004500,3.221004638671875,-0.2654702961444855,-0.11493483930826187,-0.2458214908838272
1760107196855069700,3.231069580078125,-0.24819037318229675,-0.15963786840438843,-0.2966178059577942
1760107196865134600,3.241134521484375,-0.2067800760269165,-0.18667374551296234,-0.3357532322406769
1760107196875199500,3.251199462890625,-0.16722548007965088,-0.20065906643867493,-0.35930517315864563
1760107196885265700,3.261265625,-0.13643667101860046,-0.19951656460762024,-0.35356685519218445
1760107196895330600,3.27133056640625,-0.11354093998670578,-0.17322957515716553,-0.3039969205856323
1760107196905395500,3.2813955078125,-0.09396298229694366,-0.10904818773269653,-0.2072485238313675
1760107196915460600,3.291460693359375,-0.07989243417978287,-0.013060408644378185,-0.07334905117750168
1760107196925525800,3.30152587890625,-0.06562801450490952,0.06963926553726196,0.06034589931368828
1760107196935591700,3.311591796875,-0.06808238476514816,0.08974426984786987,0.16884121298789978
1760107196945656600,3.321656494140625,-0.08413458615541458,0.0466359443962574,0.23168835043907166
1760107196955721700,3.3317216796875,-0.09761098027229309,-0.02250104770064354,0.26232776045799255
1760107196965786600,3.34178662109375,-0.10613682121038437,-0.08154119551181793,0.2685939073562622
1760107196975851500,3.3518515625,-0.11693886667490005,-0.11382803320884705,0.2658127546310425
1760107196985917700,3.361917724609375,-0.11917033046483994,-0.12978249788284302,0.26204919815063477
1760107196995982600,3.371982666015625,-0.10352931916713715,-0.11841718852519989,0.2579740285873413
1760107197006047500,3.382047607421875,-0.08275160193443298,-0.07695204019546509,0.22987528145313263
1760107197016112600,3.392112548828125,-0.07220016419887543,-0.04915422946214676,0.1865062266588211
1760107197026178600,3.402178466796875,-0.07416024804115295,-0.03598036989569664,0.1183181181550026
1760107197036243700,3.41224365234375,-0.10212317109107971,-0.01955425925552845,0.04346305504441261
1760107197046308600,3.42230859375,-0.13768382370471954,-0.003296460723504424,-0.03539847210049629
1760107197056373500,3.43237353515625,-0.17462027072906494,0.010614827275276184,-0.11330365389585495
1760107197066438700,3.442438720703125,-0.21235807240009308,0.020167585462331772,-0.18411390483379364
1760107197076503600,3.452503662109375,-0.23891590535640717,0.009617207571864128,-0.2522665858268738
1760107197086569500,3.462569580078125,-0.2405681312084198,-0.006629406940191984,-0.302491694688797
1760107197096634600,3.472634521484375,-0.21223236620426178,-0.00520754512399435,-0.3177127242088318
1760107197106699500,3.482699462890625,-0.1599944680929184,0.037396907806396484,-0.2846165597438812
1760107197116764700,3.4927646484375,-0.09086944907903671,0.1041325256228447,-0.20961527526378632
1760107197126830600,3.50283056640625,-0.019686352461576462,0.1565893441438675,-0.11073317378759384
1760107197136895700,3.512895751953125,0.039735160768032074,0.16945160925388336,-0.017291106283664703
1760107197146960400,3.52296044921875,0.08557535707950592,0.1434791386127472,0.04891960695385933
1760107197157025500,3.533025634765625,0.10150984674692154,0.06520270556211472,0.06533133238554001
1760107197167090700,3.543090576171875,0.08876795321702957,-0.023323165252804756,0.036675989627838135
1760107197177156600,3.553156494140625,0.06197149306535721,-0.08787446469068527,-0.021749237552285194
1760107197187221500,3.563221435546875,0.03894580155611038,-0.10854778438806534,-0.07065286487340927
1760107197197286700,3.57328662109375,0.025977272540330887,-0.0892995223402977,-0.10608196258544922
1760107197207351800,3.583351806640625,0.025600168853998184,-0.030769098550081253,-0.11356784403324127
1760107197217416400,3.59341650390625,0.03943076357245445,0.034575287252664566,-0.10500258207321167
1760107197227482000,3.603482177734375,0.0586627796292305,0.0860254317522049,-0.07806603610515594
1760107197237547300,3.61354736328125,0.066891148686409,0.10706253349781036,-0.05307440459728241
1760107197247612000,3.62361181640625,0.05728699266910553,0.10736054182052612,-0.04078391566872597
1760107197257677000,3.633677001953125,0.037751372903585434,0.08417772501707077,-0.04193173721432686
1760107197267742200,3.6437421875,0.0023217438720166683,0.06260372698307037,-0.05030498281121254
1760107197277808000,3.65380810546875,-0.034746263176202774,0.03086497075855732,-0.06400001794099808
1760107197287873000,3.663873046875,-0.0544709637761116,0.0005954828229732811,-0.0689212754368782
1760107197297938200,3.673938232421875,-0.06199226528406143,0.003846403444185853,-0.06699687987565994
1760107197308003000,3.684003173828125,-0.05170287564396858,0.02058916538953781,-0.06503918766975403
1760107197318068000,3.69406787109375,-0.02129729837179184,0.03026629239320755,-0.04530223459005356
1760107197328134100,3.704134033203125,0.014169614762067795,0.08056754618883133,-0.01215786300599575
1760107197338199000,3.714198974609375,0.038423556834459305,0.12878461182117462,0.02147439867258072
1760107197348264000,3.724263916015625,0.052618205547332764,0.1438210904598236,0.04911534860730171
1760107197358329000,3.7343291015625,0.06075336039066315,0.13401265442371368,0.07354665547609329
1760107197368394200,3.744394287109375,0.05908489227294922,0.11437530815601349,0.09076585620641708
1760107197378460200,3.754460205078125,0.048109471797943115,0.07291948050260544,0.092389315366745
1760107197388525000,3.764525146484375,0.036977991461753845,0.036371055990457535,0.07366250455379486
1760107197398590200,3.774590087890625,0.037811826914548874,0.02142166905105114,0.03791089728474617
1760107197408655000,3.784655029296875,0.049204565584659576,0.027607392519712448,0.007648864760994911
1760107197418720000,3.794719970703125,0.06545783579349518,0.036131106317043304,-0.024539964273571968
1760107197428786000,3.804785888671875,0.08479371666908264,0.04163506254553795,-0.04818457365036011
1760107197438851000,3.81485107421875,0.11680970340967178,0.04316424950957298,-0.057311758399009705
1760107197448916200,3.824916259765625,0.16109222173690796,0.0337345264852047,-0.029268139973282814
1760107197458981000,3.834981201171875,0.19493326544761658,0.02888251468539238,0.0231695007532835
1760107197469046000,3.8450458984375,0.21716347336769104,0.037703171372413635,0.07565081864595413
1760107197479112200,3.8551123046875,0.22956128418445587,0.04825221747159958,0.12043719738721848
1760107197489177000,3.865177001953125,0.23192563652992249,0.03498008847236633,0.13551148772239685
1760107197499242000,3.875241943359375,0.21296367049217224,0.020074108615517616,0.11340592056512833
1760107197509307100,3.88530712890625,0.18767961859703064,0.015023690648376942,0.07159242779016495
1760107197519372000,3.8953720703125,0.16628964245319366,0.050140131264925,0.022191055119037628
1760107197529438000,3.90543798828125,0.1627311259508133,0.08133773505687714,-0.02564064785838127
1760107197539503000,3.915503173828125,0.1574452817440033,0.07716163247823715,-0.07099428027868271
1760107197549568300,3.925568359375,0.144878089427948,0.04851746931672096,-0.10755522549152374
1760107197559633000,3.9356328125,0.13672855496406555,0.04066460579633713,-0.13636423647403717
1760107197569698000,3.945697998046875,0.1334771066904068,0.046603456139564514,-0.14586639404296875
1760107197579764200,3.95576416015625,0.13352876901626587,0.07517890632152557,-0.1471567004919052
1760107197589828900,3.965828857421875,0.1407182365655899,0.12965333461761475,-0.1367671638727188
1760107197599894000,3.97589404296875,0.15925277769565582,0.1939590871334076,-0.10340122133493423
1760107197609959200,3.985959228515625,0.18461166322231293,0.228354349732399,-0.07287394255399704
1760107197620024000,3.996024169921875,0.19836874306201935,0.21899811923503876,-0.06434516608715057
1760107197630090000,4.006090087890625,0.2048354297876358,0.1469700038433075,-0.07906552404165268
1760107197640155100,4.016155029296875,0.24023310840129852,0.06215764582157135,-0.085244320333004
1760107197650220000,4.026219970703125,0.2967989146709442,0.010736001655459404,-0.05126744881272316
1760107197660285000,4.036284912109375,0.35374075174331665,0.031680166721343994,0.04821892827749252
1760107197670350000,4.04635009765625,0.3949885964393616,0.08437027782201767,0.18162891268730164
1760107197680416000,4.056416015625,0.3971175253391266,0.12270115315914154,0.3158551752567291
1760107197690481200,4.066481201171875,0.3612508773803711,0.11684459447860718,0.4018417000770569
1760107197700546000,4.076546142578125,0.3092997968196869,0.1076633483171463,0.41707712411880493
1760107197710611200,4.086611083984375,0.2653065025806427,0.08506855368614197,0.3621792495250702
1760107197720676000,4.096676025390625,0.2352793663740158,0.04230751097202301,0.2460971176624298
1760107197730742000,4.106741943359375,0.22253400087356567,-0.010015616193413734,0.10212503373622894
1760107197740807200,4.11680712890625,0.23640693724155426,-0.046295326203107834,-0.035649340599775314
1760107197750872000,4.1268720703125,0.2605295777320862,-0.0593876913189888,-0.13464729487895966
1760107197760937000,4.13693701171875,0.28812581300735474,-0.05416576564311981,-0.18148110806941986
1760107197771002000,4.147002197265625,0.3117448389530182,-0.029512617737054825,-0.1822987049818039
1760107197781068000,4.157068115234375,0.3165734112262726,-0.027308586984872818,-0.15842638909816742
1760107197791133200,4.16713330078125,0.29138338565826416,-0.03669090196490288,-0.1361013799905777
1760107197801198000,4.177197998046875,0.25305384397506714,-0.026498185470700264,-0.12279276549816132
1760107197811263000,4.187262939453125,0.21326513588428497,0.004223773255944252,-0.12318584322929382
1760107197821328100,4.197328125,0.18304944038391113,0.0528419092297554,-0.11484988778829575
1760107197831394300,4.207394287109375,0.16257266700267792,0.09173204749822617,-0.10929373651742935
1760107197841459000,4.217458984375,0.1504877805709839,0.10292478650808334,-0.08880763500928879
1760107197851524000,4.227524169921875,0.16343232989311218,0.10290747135877609,-0.05409172922372818
1760107197861589200,4.23758935546875,0.17789089679718018,0.09001271426677704,-0.030414365231990814
1760107197871654100,4.247654052734375,0.19018645584583282,0.04127553477883339,-0.012744557112455368
1760107197881720000,4.257719970703125,0.1949622929096222,-0.01067874301224947,-0.0029119004029780626
1760107197891785200,4.26778515625,0.19314122200012207,-0.05547204613685608,0.005941512528806925
1760107197901850000,4.27785009765625,0.19118647277355194,-0.06998387724161148,0.024500016123056412
1760107197911915000,4.2879150390625,0.1913750171661377,-0.05895226448774338,0.05205654352903366
1760107197921980200,4.297980224609375,0.1900884509086609,-0.05170980095863342,0.08537561446428299
1760107197932046000,4.308046142578125,0.19037580490112305,-0.04099563509225845,0.12591984868049622
1760107197942111000,4.318111083984375,0.18035699427127838,-0.03207031637430191,0.16051217913627625
1760107197952176000,4.328176025390625,0.1560167670249939,-0.023366576060652733,0.18523269891738892
1760107197962241300,4.3382412109375,0.12019698321819305,0.002597380895167589,0.19038325548171997
1760107197972306000,4.348305908203125,0.07621034979820251,0.032278046011924744,0.174463152885437
1760107197982372000,4.3583720703125,0.04693741351366043,0.03377740457653999,0.13387630879878998
1760107197992437200,4.368437255859375,0.031377095729112625,0.021919414401054382,0.09064547717571259
1760107198002502000,4.378501953125,0.03503548353910446,-0.0011877698125317693,0.0622018538415432
1760107198012567000,4.388567138671875,0.03911491110920906,-0.030303576961159706,0.06276378035545349
1760107198022632200,4.398632080078125,0.034987810999155045,-0.05512503907084465,0.09363461285829544
1760107198032698000,4.408697998046875,0.0215939749032259,-0.08772984892129898,0.14845125377178192
1760107198042763000,4.418762939453125,-0.008258196525275707,-0.11538997292518616,0.2009216547012329
1760107198052828200,4.428828125,-0.043470777571201324,-0.1466221958398819,0.23149821162223816
1760107198062893000,4.43889306640625,-0.0836821123957634,-0.1593766063451767,0.23032161593437195
1760107198072958000,4.4489580078125,-0.11006684601306915,-0.1482432633638382,0.21269069612026215
1760107198083024100,4.459024169921875,-0.1269739270210266,-0.11789148300886154,0.17204207181930542
1760107198093089000,4.469089111328125,-0.13874509930610657,-0.10461162775754929,0.1120237410068512
1760107198103154200,4.479154296875,-0.14672233164310455,-0.11152919381856918,0.05020191892981529
1760107198113219000,4.489218994140625,-0.14560434222221375,-0.11742489784955978,0.023063506931066513
1760107198123284200,4.4992841796875,-0.14496278762817383,-0.10579753667116165,0.045467883348464966
1760107198133350100,4.50935009765625,-0.14659689366817474,-0.07867590337991714,0.11756071448326111
1760107198143415000,4.5194150390625,-0.1650792360305786,-0.04104570299386978,0.20507937669754028
1760107198153480000,4.52947998046875,-0.182571142911911,-0.00042317630141042173,0.28206712007522583
1760107198163545000,4.539545166015625,-0.19686326384544373,0.025777002796530724,0.325881689786911
1760107198173610000,4.54960986328125,-0.21483534574508667,0.014956045895814896,0.33225277066230774
1760107198183676000,4.559676025390625,-0.23897263407707214,-0.0430406779050827,0.29665085673332214
1760107198193741000,4.569740966796875,-0.2729170322418213,-0.1155625507235527,0.24303582310676575
1760107198203806200,4.57980615234375,-0.3035457730293274,-0.14176911115646362,0.18881599605083466
1760107198213871000,4.58987109375,-0.32244250178337097,-0.1324714869260788,0.14320802688598633
1760107198223936000,4.59993603515625,-0.34655794501304626,-0.06547701358795166,0.1071954295039177
1760107198234003000,4.6100029296875,-0.3817119300365448,-0.015310512855648994,0.05569921433925629
1760107198244067800,4.62006787109375,-0.4282669126987457,0.014347514137625694,-0.02460574358701706
1760107198254133000,4.630133056640625,-0.47979483008384705,0.0011747203534469008,-0.14356781542301178
1760107198264198100,4.6401982421875,-0.5107189416885376,-0.019656259566545486,-0.29657894372940063
1760107198274262800,4.6502626953125,-0.5057542324066162,-0.028733111917972565,-0.42419442534446716
1760107198284329000,4.660328857421875,-0.4892767369747162,-0.027904868125915527,-0.5171802639961243
1760107198294394000,4.67039404296875,-0.44343656301498413,-0.053097307682037354,-0.5483605861663818
1760107198304458800,4.680458740234375,-0.3787185549736023,-0.07917577773332596,-0.5163198113441467
1760107198314524000,4.69052392578125,-0.3010639548301697,-0.06845122575759888,-0.40513044595718384
1760107198324589000,4.700589111328125,-0.2184804081916809,0.010484332218766212,-0.21681539714336395
1760107198334655000,4.710655029296875,-0.16426298022270203,0.11345625668764114,0.018793394789099693
1760107198344720000,4.720719970703125,-0.1607057899236679,0.1358608901500702,0.23048754036426544
1760107198354785000,4.730784912109375,-0.19253136217594147,0.06845922023057938,0.3835849463939667
1760107198364850000,4.740849853515625,-0.22229565680027008,-0.03809518739581108,0.44039949774742126
1760107198374914800,4.750914794921875,-0.23290088772773743,-0.11579291522502899,0.43760156631469727
1760107198384980000,4.76097998046875,-0.23334164917469025,-0.15979845821857452,0.3893187344074249
1760107198395046000,4.7710458984375,-0.2227015197277069,-0.17811700701713562,0.32630035281181335
1760107198405110800,4.78111083984375,-0.19945718348026276,-0.17580698430538177,0.2615373432636261
1760107198415176000,4.791176025390625,-0.1841413378715515,-0.16964522004127502,0.1960294246673584
1760107198425241000,4.801240966796875,-0.1836872696876526,-0.17253848910331726,0.13135190308094025
1760107198435306000,4.811305908203125,-0.19738657772541046,-0.16606833040714264,0.04935130476951599
1760107198445372000,4.821371826171875,-0.22871918976306915,-0.14721953868865967,-0.03521284833550453
1760107198455437000,4.83143701171875,-0.27986574172973633,-0.14329484105110168,-0.1306365728378296
1760107198465502000,4.841501953125,-0.3318551778793335,-0.14400245249271393,-0.20966774225234985
1760107198475566800,4.85156689453125,-0.37738296389579773,-0.12941817939281464,-0.27077025175094604
1760107198485632000,4.861632080078125,-0.39726826548576355,-0.07894115149974823,-0.30459532141685486
1760107198495698000,4.871697998046875,-0.38577353954315186,-0.013742976821959019,-0.31047824025154114
1760107198505763000,4.88176318359375,-0.3585855960845947,0.034698858857154846,-0.2862171232700348
1760107198515828000,4.891827880859375,-0.3092300295829773,0.07549449056386948,-0.2420155555009842
1760107198525892900,4.901892822265625,-0.24903032183647156,0.10178495198488235,-0.1798078417778015
1760107198535958000,4.9119580078125,-0.1867443174123764,0.09995269775390625,-0.11186501383781433
1760107198546024000,4.92202392578125,-0.13474370539188385,0.10761008411645889,-0.044688109308481216
1760107198556088800,4.9320888671875,-0.10351201146841049,0.10948388278484344,0.00199337606318295
1760107198566154000,4.942154052734375,-0.09143990278244019,0.10322146117687225,0.01835503801703453
1760107198576219000,4.952218994140625,-0.08381500840187073,0.0825691819190979,0.011314972303807735
1760107198586284000,4.962283935546875,-0.07951506227254868,0.03467275947332382,-0.01125132292509079
1760107198596350000,4.972349853515625,-0.085859514772892,-0.009464874863624573,-0.032699622213840485
1760107198606415000,4.9824150390625,-0.09301063418388367,-0.027274232357740402,-0.044681716710329056
1760107198616480000,4.99247998046875,-0.10582123696804047,-0.02026958577334881,-0.0433831587433815
1760107198626545000,5.002544921875,-0.11320964246988297,-0.0018602180061861873,-0.04940083995461464
1760107198636610000,5.012610107421875,-0.10773738473653793,0.019695142284035683,-0.04715925455093384
1760107198646676000,5.022676025390625,-0.09774360060691833,0.029881199821829796,-0.049563292413949966
1760107198656740900,5.032740966796875,-0.09197386354207993,0.03224209323525429,-0.047746218740940094
1760107198666806000,5.042805908203125,-0.08842866867780685,0.03554227948188782,-0.037821147590875626
1760107198676871200,5.05287109375,-0.07360364496707916,0.04054156690835953,-0.015740614384412766
1760107198686935800,5.062935791015625,-0.05385683849453926,0.034996334463357925,0.014209828339517117
1760107198697002000,5.073001953125,-0.02954004891216755,0.0266001857817173,0.05260195955634117
1760107198707067100,5.083067138671875,0.0021856562234461308,0.039867520332336426,0.09875054657459259
1760107198717131800,5.0931318359375,0.027171699330210686,0.05035371705889702,0.13359268009662628
1760107198727197000,5.103197021484375,0.03723232448101044,0.04502126947045326,0.15398450195789337
1760107198737262000,5.113261962890625,0.03538941591978073,0.04212268441915512,0.15636004507541656
1760107198747328000,5.123327880859375,0.028508607298135757,0.05801083892583847,0.15270724892616272
1760107198757393000,5.133392822265625,0.019364111125469208,0.058874502778053284,0.1341676563024521
1760107198767458000,5.1434580078125,0.021516211330890656,0.033238381147384644,0.11217181384563446
1760107198777523000,5.15352294921875,0.03032861091196537,0.003340669209137559,0.10025283694267273
1760107198787587800,5.163587890625,0.036732446402311325,0.00279019377194345,0.10162569582462311
1760107198797653000,5.173653076171875,0.03839985281229019,0.05760790407657623,0.11754500865936279
1760107198807719000,5.183718994140625,0.034509241580963135,0.1436019092798233,0.12278184294700623
1760107198817784000,5.1937841796875,0.027952272444963455,0.21096603572368622,0.09448975324630737
1760107198827849000,5.203848876953125,0.03447036072611809,0.22174863517284393,0.056105345487594604
1760107198837914000,5.2139140625,0.043293945491313934,0.19775035977363586,0.014771223068237305
1760107198847979000,5.22397900390625,0.055569518357515335,0.15211310982704163,-0.013162140734493732
1760107198858045000,5.234044921875,0.0685574859380722,0.10213222354650497,-0.011593272909522057
1760107198868109800,5.24410986328125,0.06993114948272705,0.0633816346526146,0.020202206447720528
1760107198878175000,5.254175048828125,0.07337594777345657,0.030482808127999306,0.07291974872350693
1760107198888239900,5.264239990234375,0.07545401155948639,0.02648407220840454,0.1238042339682579
1760107198898305000,5.274304931640625,0.08769762516021729,0.023783626034855843,0.16262513399124146
1760107198908371000,5.284370849609375,0.10696080327033997,0.0013608753215521574,0.17526449263095856
1760107198918436000,5.29443603515625,0.12304522842168808,-0.011122159659862518,0.16200914978981018
1760107198928501000,5.3045009765625,0.14378567039966583,0.018875153735280037,0.14169001579284668
1760107198938566000,5.31456591796875,0.1463681310415268,0.06800355017185211,0.10203235596418381
1760107198948631000,5.324631103515625,0.13457591831684113,0.08723104000091553,0.03900225833058357
1760107198958697000,5.334697021484375,0.11499769240617752,0.06154538691043854,-0.04379488527774811
1760107198968761900,5.344761962890625,0.13284726440906525,0.03338325768709183,-0.12282019853591919
1760107198978827000,5.354826904296875,0.12630626559257507,0.008859537541866302,-0.18542924523353577
1760107198988892000,5.364891845703125,0.12010669708251953,0.00817856751382351,-0.20166254043579102
1760107198998956800,5.374956787109375,0.1361304074525833,0.04646523669362068,-0.18399406969547272
1760107199009023000,5.38502294921875,0.17711405456066132,0.09551746398210526,-0.12885278463363647
1760107199019088100,5.395088134765625,0.21706679463386536,0.13772350549697876,-0.073597252368927
1760107199029152800,5.40515283203125,0.23404711484909058,0.16802895069122314,-0.019278090447187424
1760107199039218000,5.415218017578125,0.2182612270116806,0.17092114686965942,0.01936943642795086
1760107199049283000,5.425282958984375,0.20156560838222504,0.16523262858390808,0.06791114062070847
1760107199059348000,5.435347900390625,0.19166770577430725,0.1606096476316452,0.12138954550027847
1760107199069414000,5.445413818359375,0.19252124428749084,0.1675269454717636,0.1768733114004135
1760107199079479000,5.45547900390625,0.2080828994512558,0.15689188241958618,0.2141365259885788
1760107199089544000,5.4655439453125,0.22527280449867249,0.13669686019420624,0.2282286435365677
1760107199099608800,5.47560888671875,0.237676203250885,0.11454149335622787,0.2186093032360077
1760107199109674000,5.485674072265625,0.23462635278701782,0.10343371331691742,0.18070054054260254
1760107199119740000,5.495739990234375,0.22512339055538177,0.1137116476893425,0.1072702631354332
1760107199129804800,5.5058046875,0.2059507668018341,0.10087201744318008,0.008117581717669964
1760107199139870000,5.515869873046875,0.18928363919258118,0.0762777253985405,-0.0848027691245079
1760107199149935000,5.52593505859375,0.16448162496089935,0.04703701660037041,-0.15476427972316742
1760107199159999700,5.535999755859375,0.14737799763679504,0.029392777010798454,-0.18340738117694855
1760107199170066000,5.54606591796875,0.11745605617761612,-0.007872037589550018,-0.1899278610944748
1760107199180131000,5.556131103515625,0.09092111885547638,-0.05158436298370361,-0.176052525639534
1760107199190196000,5.566196044921875,0.08699322491884232,-0.06894231587648392,-0.15797525644302368
1760107199200260900,5.5762607421875,0.06154591962695122,-0.06587515026330948,-0.13254526257514954
1760107199210326000,5.586325927734375,0.03797827288508415,-0.04729188233613968,-0.09328839927911758
1760107199220392000,5.596391845703125,0.016535034403204918,0.03917456790804863,-0.06036347523331642
1760107199230456600,5.60645654296875,0.0026282735634595156,0.1290312260389328,-0.06896335631608963
1760107199240521700,5.616521728515625,0.014856710098683834,0.1858484297990799,-0.11093104630708694
1760107199250586600,5.626586669921875,0.0473153181374073,0.2032622992992401,-0.16745130717754364
1760107199260651500,5.636651611328125,0.07306808233261108,0.20561574399471283,-0.22024394571781158
1760107199270717700,5.6467177734375,0.09146972745656967,0.19750535488128662,-0.2480926215648651
1760107199280782600,5.656782470703125,0.10154446959495544,0.16842550039291382,-0.24632428586483002
1760107199290847500,5.666847412109375,0.11184131354093552,0.12292539328336716,-0.2185954600572586
1760107199300912600,5.67691259765625,0.11268153786659241,0.07159429043531418,-0.16939808428287506
1760107199310977800,5.686977783203125,0.10973848402500153,0.01432274654507637,-0.1115851178765297
1760107199321042400,5.69704248046875,0.11141707003116608,-0.01883494108915329,-0.04809455946087837
1760107199331108600,5.707108642578125,0.12050005048513412,-0.03326501324772835,-0.0010040117194876075
1760107199341173800,5.717173828125,0.1273433119058609,-0.03569541126489639,0.03364770859479904
1760107199351238700,5.72723876953125,0.1300988793373108,-0.03852448984980583,0.04748576134443283
1760107199361303600,5.737303466796875,0.1259576678276062,-0.044506482779979706,0.05019126459956169
1760107199371368700,5.74736865234375,0.1221299022436142,-0.04422125592827797,0.0519324392080307
1760107199381434600,5.7574345703125,0.11601448804140091,-0.034508973360061646,0.06096295267343521
1760107199391499500,5.76749951171875,0.10465291142463684,-0.027873709797859192,0.07455306500196457
1760107199401564700,5.777564697265625,0.0947858989238739,-0.04428038001060486,0.08391620218753815
1760107199411629600,5.787629638671875,0.08420515805482864,-0.059663329273462296,0.09568391740322113
1760107199421694500,5.797694580078125,0.07971587032079697,-0.07279404252767563,0.11221175640821457
1760107199431760600,5.8077607421875,0.06932714581489563,-0.07702900469303131,0.13496607542037964
1760107199441825500,5.817825439453125,0.06304634362459183,-0.08850083500146866,0.16346855461597443
1760107199451890700,5.827890625,0.04833664000034332,-0.091519795358181,0.1985168159008026
1760107199461955600,5.83795556640625,0.023748205974698067,-0.09964616596698761,0.21823406219482422
1760107199472020700,5.848020751953125,-0.013793310150504112,-0.11141760647296906,0.2161075323820114
1760107199482085600,5.858085693359375,-0.06096188724040985,-0.11987607181072235,0.19118380546569824
1760107199492151800,5.86815185546875,-0.10543534904718399,-0.1306466907262802,0.15492753684520721
1760107199502216700,5.878216796875,-0.1465766578912735,-0.12709616124629974,0.10633682459592819
1760107199512281600,5.888281494140625,-0.17376300692558289,-0.12527403235435486,0.06241251155734062
1760107199522346800,5.8983466796875,-0.1990385353565216,-0.1309758573770523,0.0383460558950901
1760107199532411600,5.90841162109375,-0.21303850412368774,-0.12060151249170303,0.04199405387043953
1760107199542477600,5.9184775390625,-0.21675707399845123,-0.07944183051586151,0.06938493251800537
1760107199552542700,5.928542724609375,-0.21314476430416107,-0.022057631984353065,0.13266217708587646
1760107199562607600,5.938607666015625,-0.21441856026649475,0.044442299753427505,0.19970884919166565
1760107199572672500,5.948672607421875,-0.22866353392601013,0.10837388038635254,0.2586565911769867
1760107199582737700,5.958737548828125,-0.2596171796321869,0.11296650022268295,0.2866802215576172
1760107199592803800,5.968803955078125,-0.29506200551986694,0.08197156339883804,0.27387362718582153
1760107199602868500,5.978868408203125,-0.31910207867622375,0.02033962681889534,0.23237571120262146
1760107199612933600,5.98893359375,-0.3334144353866577,-0.008288822136819363,0.16318438947200775
1760107199622998800,5.998998779296875,-0.3353777229785919,-0.00875247921794653,0.07740051299333572
1760107199633063700,6.009063720703125,-0.3398057818412781,-0.006250172853469849,-0.035346806049346924
1760107199643129600,6.019129638671875,-0.35992541909217834,-0.016280969604849815,-0.19450077414512634
1760107199653194800,6.02919482421875,-0.39929652214050293,-0.04027764871716499,-0.3847391605377197
1760107199663259400,6.03925927734375,-0.4400218427181244,-0.05098994821310043,-0.5718608498573303
1760107199673324500,6.049324462890625,-0.4477977454662323,-0.037577204406261444,-0.6756271719932556
1760107199683389700,6.0593896484375,-0.4176901876926422,0.03151451796293259,-0.6648810505867004
1760107199693454600,6.06945458984375,-0.34792041778564453,0.13180837035179138,-0.5430816411972046
1760107199703520500,6.0795205078125,-0.2916901707649231,0.22013449668884277,-0.3763408660888672
1760107199713585700,6.089585693359375,-0.26833346486091614,0.23827381432056427,-0.22357264161109924
1760107199723650800,6.09965087890625,-0.2561979591846466,0.22395692765712738,-0.08454151451587677
1760107199733715500,6.109715576171875,-0.2550203204154968,0.19047008454799652,0.024690965190529823
1760107199743780600,6.119780517578125,-0.2580147683620453,0.1354566216468811,0.11586614698171616
1760107199753846500,6.129846435546875,-0.24493224918842316,0.09408308565616608,0.18604443967342377
1760107199763911700,6.13991162109375,-0.20673906803131104,0.07213331758975983,0.2439570128917694
1760107199773976600,6.1499765625,-0.15059509873390198,0.05402781441807747,0.29415467381477356
1760107199784041700,6.160041748046875,-0.10593708604574203,0.034684743732213974,0.33798229694366455
1760107199794106600,6.170106689453125,-0.08658229559659958,0.013795707374811172,0.3773012161254883
1760107199804172500,6.180172607421875,-0.08672211319208145,-0.008787366561591625,0.38624516129493713
1760107199814237700,6.19023779296875,-0.09852577745914459,-0.06107001006603241,0.36709704995155334
1760107199824302600,6.200302490234375,-0.1267547458410263,-0.12329636514186859,0.31901952624320984
1760107199834367500,6.210367431640625,-0.1589619517326355,-0.17244234681129456,0.24467259645462036
1760107199844432600,6.2204326171875,-0.1987099051475525,-0.21300920844078064,0.15659865736961365
1760107199854498600,6.23049853515625,-0.23777954280376434,-0.22528745234012604,0.0673726499080658
1760107199864563700,6.240563720703125,-0.2648060917854309,-0.21705561876296997,-0.005181446205824614
1760107199874628600,6.250628662109375,-0.2912411689758301,-0.19686086475849152,-0.07043661922216415
1760107199884693500,6.260693603515625,-0.31796011328697205,-0.1569528579711914,-0.1255563199520111
1760107199894758700,6.270758544921875,-0.3391338586807251,-0.09613905102014542,-0.1674814075231552
1760107199904823600,6.280823486328125,-0.35514476895332336,-0.027649737894535065,-0.1970350444316864
1760107199914889500,6.290889404296875,-0.35386085510253906,0.041666753590106964,-0.20701709389686584
1760107199924954600,6.30095458984375,-0.34152403473854065,0.07763966917991638,-0.1980273276567459
1760107199935019800,6.311019775390625,-0.3166418671607971,0.0783347487449646,-0.18376584351062775
1760107199945084700,6.321084716796875,-0.273649126291275,0.03937563672661781,-0.16547630727291107
1760107199955149600,6.331149658203125,-0.220676988363266,-0.009048355743288994,-0.1482856124639511
1760107199965215700,6.3412158203125,-0.16852962970733643,-0.051359858363866806,-0.12839286029338837
1760107199975280600,6.35128076171875,-0.12562210857868195,-0.07438448816537857,-0.11716976761817932
1760107199985345500,6.361345458984375,-0.09827516973018646,-0.08656871318817139,-0.10859225690364838
1760107199995410700,6.37141064453125,-0.08823052793741226,-0.09845493733882904,-0.09819554537534714
1760107200005475600,6.3814755859375,-0.08750028908252716,-0.10097401589155197,-0.07726762443780899
1760107200015541500,6.39154150390625,-0.07017429172992706,-0.08863425999879837,-0.050404053181409836
1760107200025606700,6.401606689453125,-0.055091213434934616,-0.0767030343413353,0.002656236756592989
1760107200035671800,6.411671875,-0.03218483552336693,-0.03877189755439758,0.047266315668821335
1760107200045736400,6.421736328125,-0.024031832814216614,-0.020776119083166122,0.08073319494724274
1760107200055801600,6.431801513671875,-0.03145645931363106,-0.03780436888337135,0.08543127775192261
1760107200065866800,6.44186669921875,-0.05878448858857155,-0.07107231020927429,0.07034660130739212
1760107200075932400,6.451932373046875,-0.08377878367900848,-0.09285164624452591,0.038421690464019775
1760107200085997600,6.46199755859375,-0.10790063440799713,-0.10000356286764145,-0.007013967260718346
1760107200096062700,6.472062744140625,-0.10785961896181107,-0.07397355884313583,-0.05085119605064392
1760107200106127600,6.482127685546875,-0.08827953040599823,-0.03615161404013634,-0.06478378921747208
1760107200116192500,6.492192626953125,-0.057023871690034866,0.00018242653459310532,-0.050038401037454605
1760107200126258700,6.5022587890625,-0.03131131827831268,0.023753533139824867,-0.01696220599114895
1760107200136323600,6.512323486328125,-0.014185593463480473,0.0358584001660347,0.046249255537986755
1760107200146388500,6.522388427734375,-0.0031989889685064554,0.029399700462818146,0.11070174723863602
1760107200156453600,6.53245361328125,-0.005687446799129248,0.01031628716737032,0.16538843512535095
1760107200166518800,6.542518798828125,-0.017118265852332115,-0.017715614289045334,0.18581460416316986
1760107200176584700,6.552584716796875,-0.025969548150897026,-0.056533850729465485,0.17815908789634705
1760107200186649600,6.562649658203125,-0.025185780599713326,-0.09526446461677551,0.14154408872127533
1760107200196714800,6.57271484375,-0.010366620495915413,-0.13572773337364197,0.1053871437907219
1760107200206779600,6.582779541015625,0.004454935900866985,-0.1430005580186844,0.07647266983985901
1760107200216844500,6.592844482421875,0.024323714897036552,-0.14450258016586304,0.0724792629480362
1760107200226909700,6.60290966796875,0.03166818246245384,-0.12848101556301117,0.08718816190958023
1760107200236975600,6.6129755859375,0.05463927611708641,-0.09889941662549973,0.13481134176254272
1760107200247040800,6.623040771484375,0.08616018295288086,-0.0451834574341774,0.19436734914779663
1760107200257105700,6.633105712890625,0.11601421982049942,0.02906946837902069,0.269022136926651
1760107200267170600,6.643170654296875,0.13777278363704681,0.13274286687374115,0.3377942740917206
1760107200277235700,6.653235595703125,0.1453167200088501,0.2258634865283966,0.3893378973007202
1760107200287302000,6.663302001953125,0.1570814996957779,0.27161499857902527,0.40205663442611694
1760107200297366500,6.673366455078125,0.163164421916008,0.24776585400104523,0.37632063031196594
1760107200307431700,6.683431640625,0.1664385050535202,0.1694931536912918,0.3198208808898926
1760107200317496800,6.693496826171875,0.15934838354587555,0.07075033336877823,0.2345866709947586
1760107200327561700,6.703561767578125,0.16237106919288635,-0.045089446008205414,0.1400527060031891
1760107200337626600,6.713626708984375,0.1489146500825882,-0.1115904450416565,0.04976915568113327
1760107200347692800,6.72369287109375,0.12569694221019745,-0.16620121896266937,-0.046479884535074234
1760107200357757700,6.7337578125,0.10617250949144363,-0.17142581939697266,-0.14715856313705444
1760107200367822600,6.743822509765625,0.10973475128412247,-0.1345072090625763,-0.2330140769481659
1760107200377887700,6.7538876953125,0.12392514199018478,-0.07884687930345535,-0.2849084436893463
1760107200387953000,6.763952880859375,0.12351048737764359,-0.047626908868551254,-0.30723902583122253
1760107200398018600,6.7740185546875,0.10313117504119873,-0.045823413878679276,-0.3185689151287079
1760107200408083700,6.784083740234375,0.06876441836357117,-0.033299099653959274,-0.30424776673316956
1760107200418148900,6.79414892578125,0.03864859417080879,-0.004415787290781736,-0.2594427466392517
1760107200428213500,6.804213623046875,0.03111131303012371,0.05425684526562691,-0.17523440718650818
1760107200438278700,6.814278564453125,0.05566512793302536,0.1250564455986023,-0.054857123643159866
1760107200448344800,6.8243447265625,0.10910331457853317,0.18045338988304138,0.0729471743106842
1760107200458409700,6.83440966796875,0.18077804148197174,0.19090764224529266,0.16851338744163513
1760107200468474600,6.844474609375,0.24111701548099518,0.13235777616500854,0.22614258527755737
1760107200478539800,6.854539794921875,0.26498159766197205,0.028262797743082047,0.25244903564453125
1760107200488604700,6.864604736328125,0.23035012185573578,-0.06952395290136337,0.25001275539398193
1760107200498669600,6.874669677734375,0.16547390818595886,-0.14724697172641754,0.22509489953517914
1760107200508735700,6.88473583984375,0.10387925803661346,-0.1785377860069275,0.17245618999004364
1760107200518800600,6.894800537109375,0.05944335460662842,-0.18852676451206207,0.09449880570173264
1760107200528865800,6.90486572265625,0.03550233319401741,-0.18627692759037018,0.0023278691805899143
1760107200538930700,6.9149306640625,0.019768644124269485,-0.1643117070198059,-0.08487201482057571
1760107200548995800,6.924995849609375,-0.0005166532355360687,-0.11686722934246063,-0.15814223885536194
1760107200559061800,6.935061767578125,-0.02871020883321762,-0.07104328274726868,-0.2054958939552307
1760107200569126700,6.945126708984375,-0.051168378442525864,-0.039870984852313995,-0.23297733068466187
1760107200579191800,6.95519189453125,-0.06972608715295792,-0.011521367356181145,-0.2385321408510208
1760107200589256700,6.965256591796875,-0.07318472862243652,0.0024370586033910513,-0.21676719188690186
1760107200599321600,6.975321533203125,-0.06693855673074722,0.004078897647559643,-0.176517516374588
1760107200609386800,6.98538671875,-0.0432787649333477,-0.00549197057262063,-0.12483993917703629
1760107200619452700,6.99545263671875,-0.005289037711918354,-0.006768157705664635,-0.07727055251598358
1760107200629517800,7.005517822265625,0.020410999655723572,-0.031025826930999756,-0.030646326020359993
1760107200639582700,7.015582763671875,0.050633616745471954,-0.06003377586603165,0.006391586735844612
1760107200649647600,7.025647705078125,0.0805497020483017,-0.07634404301643372,0.022417956963181496
1760107200659712800,7.035712646484375,0.09949489682912827,-0.12185399979352951,0.0326591432094574
1760107200669778700,7.04577880859375,0.09795612096786499,-0.16397029161453247,0.04694513976573944
1760107200679843600,7.055843505859375,0.07663112878799438,-0.19601798057556152,0.06416114419698715
1760107200689908700,7.06590869140625,0.032653018832206726,-0.21482521295547485,0.07218471169471741
1760107200699974000,7.075973876953125,-0.018102571368217468,-0.23406656086444855,0.04632408916950226
1760107200710038800,7.086038818359375,-0.05146186053752899,-0.23329903185367584,0.007320763543248177
1760107200720104700,7.096104736328125,-0.06576649844646454,-0.2144281417131424,-0.03876097872853279
1760107200730169900,7.106169921875,-0.06000687927007675,-0.18410831689834595,-0.08690293878316879
1760107200740234500,7.116234375,-0.056350622326135635,-0.16786916553974152,-0.11448343843221664
1760107200750299600,7.126299560546875,-0.04470701888203621,-0.1431073546409607,-0.11302322149276733
1760107200760364800,7.13636474609375,-0.021648570895195007,-0.12220420688390732,-0.06822565943002701
1760107200770429700,7.1464296875,-0.0031302794814109802,-0.10139080137014389,-0.0007510114228352904
1760107200780495600,7.15649560546875,-0.0038341530598700047,-0.08618015795946121,0.06695559620857239
1760107200790560800,7.166560791015625,-0.01474645547568798,-0.05483688414096832,0.11269751936197281
1760107200800626000,7.1766259765625,-0.03931145370006561,-0.03716867417097092,0.11387037485837936
1760107200810690600,7.186690673828125,-0.08014330267906189,-0.060500893741846085,0.08792798966169357
1760107200820755700,7.196755615234375,-0.12459039688110352,-0.10300760716199875,0.055694155395030975
1760107200830820900,7.20682080078125,-0.1657857745885849,-0.13342677056789398,0.031079355627298355
1760107200840886500,7.216886474609375,-0.19882068037986755,-0.16364724934101105,0.023750070482492447
1760107200850951700,7.22695166015625,-0.22810959815979004,-0.1785215437412262,0.012076104059815407
1760107200861016800,7.237016845703125,-0.2658601701259613,-0.1444208323955536,0.015967248007655144
1760107200871081500,7.24708154296875,-0.2956377863883972,-0.05174947902560234,0.0339323990046978
1760107200881146600,7.257146728515625,-0.321283757686615,0.06228175014257431,0.06872526556253433
1760107200891212800,7.267212890625,-0.32525184750556946,0.13753895461559296,0.09614171087741852
1760107200901277700,7.277277587890625,-0.3122740089893341,0.14041702449321747,0.129839226603508
1760107200911342600,7.287342529296875,-0.27377694845199585,0.12039698660373688,0.17404663562774658
1760107200921407700,7.29740771484375,-0.22512179613113403,0.08224693685770035,0.23481491208076477
1760107200931473000,7.307472900390625,-0.17973753809928894,0.03744591027498245,0.28948506712913513
1760107200941538800,7.317538818359375,-0.14243943989276886,-0.007879228331148624,0.3337196409702301
1760107200951603700,7.327603759765625,-0.11410500109195709,-0.048813346773386,0.3443073034286499
1760107200961668600,7.337668701171875,-0.09456592053174973,-0.07364785671234131,0.31617528200149536
1760107200971733800,7.347733642578125,-0.07824739813804626,-0.06656783819198608,0.25309139490127563
1760107200981798700,7.357798583984375,-0.05995521321892738,-0.028689434751868248,0.1698329746723175
1760107200991863800,7.36786376953125,-0.05365710332989693,0.024861939251422882,0.0772567018866539
1760107201001929700,7.3779296875,-0.05957890674471855,0.07545427978038788,-0.02593279629945755
1760107201011994600,7.38799462890625,-0.07741569727659225,0.08952349424362183,-0.13673387467861176
1760107201022059800,7.398059814453125,-0.11534150689840317,0.08261631429195404,-0.2487323135137558
1760107201032124700,7.408124755859375,-0.17438910901546478,0.06277177482843399,-0.3661404252052307
1760107201042189600,7.418189453125,-0.24824495613574982,0.025591114535927773,-0.47669756412506104
1760107201052254700,7.428254638671875,-0.3403461277484894,-0.011117099784314632,-0.5571998953819275
1760107201062320600,7.438320556640625,-0.4033288061618805,-0.0449373796582222,-0.5830059051513672
1760107201072385800,7.4483857421875,-0.4040555953979492,-0.03726508095860481,-0.5278571844100952
1760107201082450700,7.45845068359375,-0.31906747817993164,0.018038654699921608,-0.39755961298942566
1760107201092515600,7.468515625,-0.18176206946372986,0.08576923608779907,-0.20743601024150848
1760107201102580700,7.478580810546875,-0.036139097064733505,0.1511698067188263,0.01212936732918024
1760107201112647000,7.48864697265625,0.05420598015189171,0.19111908972263336,0.21057242155075073
1760107201122711600,7.498711669921875,0.07026537507772446,0.1746290624141693,0.3453936278820038
1760107201132776700,7.508776611328125,0.040875792503356934,0.12381382286548615,0.41671067476272583
1760107201142841900,7.518841796875,-0.0054331147111952305,0.08032439649105072,0.42323461174964905
1760107201152906800,7.52890673828125,-0.04808603599667549,0.037164412438869476,0.38445526361465454
1760107201162972700,7.53897265625,-0.07990894466638565,-0.009199623949825764,0.3151949644088745
1760107201173037800,7.549037841796875,-0.09303859621286392,-0.06821127980947495,0.23328039050102234
1760107201183102700,7.559102783203125,-0.1004275381565094,-0.1452796906232834,0.15214000642299652
1760107201193167600,7.569167724609375,-0.10859012603759766,-0.2131061553955078,0.07850465923547745
1760107201203232800,7.579232666015625,-0.11978605389595032,-0.24540284276008606,0.021162277087569237
1760107201213297700,7.589297607421875,-0.14120613038539886,-0.2217843234539032,-0.00878230668604374
1760107201223363600,7.599363525390625,-0.18275170028209686,-0.15721945464611053,-0.030493460595607758
1760107201233428500,7.609428466796875,-0.24426114559173584,-0.08748031407594681,-0.04964878037571907
1760107201243493600,7.61949365234375,-0.31093496084213257,-0.04578213393688202,-0.07588038593530655
1760107201253558300,7.629558349609375,-0.35401666164398193,-0.026247583329677582,-0.10224168002605438
1760107201263623400,7.63962353515625,-0.3708057701587677,-0.02462119050323963,-0.13499216735363007
1760107201273688600,7.6496884765625,-0.3670291304588318,-0.04116315022110939,-0.1622304469347
1760107201283754200,7.659754150390625,-0.3480152189731598,-0.06301305443048477,-0.18022489547729492
1760107201293819400,7.6698193359375,-0.3149147927761078,-0.07092717289924622,-0.18312294781208038
1760107201303884500,7.679884521484375,-0.27372077107429504,-0.05775730684399605,-0.16650721430778503
1760107201313949400,7.689949462890625,-0.2336455136537552,-0.05053640902042389,-0.14006629586219788
1760107201324014300,7.700014404296875,-0.19514526426792145,-0.04975637048482895,-0.10123927146196365
1760107201334080500,7.71008056640625,-0.15961016714572906,-0.043179161846637726,-0.05709604173898697
1760107201344145700,7.720145751953125,-0.12764371931552887,-0.0333491675555706,-0.026863837614655495
1760107201354210300,7.730210205078125,-0.11459928005933762,-0.030297186225652695,-0.01555019710212946
1760107201364275500,7.740275390625,-0.11624298244714737,-0.02551388181746006,-0.0314151793718338
1760107201374340600,7.750340576171875,-0.1383775770664215,-0.01641678996384144,-0.06680166721343994
1760107201384405200,7.7604052734375,-0.15844130516052246,-0.0026082999538630247,-0.1070215255022049
1760107201394471400,7.770471435546875,-0.16741909086704254,0.015300393104553223,-0.1314413845539093
1760107201404536600,7.78053662109375,-0.15837499499320984,0.04562367871403694,-0.12618936598300934
1760107201414601500,7.7906015625,-0.12893028557300568,0.06991969794034958,-0.10112475603818893
1760107201424666400,7.800666259765625,-0.09153364598751068,0.09014187753200531,-0.05727687105536461
1760107201434731500,7.8107314453125,-0.04799788445234299,0.09023482352495193,-0.014392521232366562
1760107201444797400,7.82079736328125,-0.011653993278741837,0.06684481352567673,0.018858110532164574
1760107201454862300,7.8308623046875,0.005907157436013222,0.036858148872852325,0.02611442469060421
1760107201464927500,7.840927490234375,-0.0031380027066916227,0.016682839021086693,0.011089934967458248
1760107201474992600,7.85099267578125,-0.026376746594905853,0.010089651681482792,-0.018384067341685295
1760107201485057300,7.861057373046875,-0.049367815256118774,0.002089249901473522,-0.04719041660428047
1760107201495122400,7.871122314453125,-0.07115140557289124,-0.012542955577373505,-0.05192205309867859
1760107201505188400,7.881188232421875,-0.06656757742166519,-0.01751880533993244,-0.023847009986639023
1760107201515253500,7.89125341796875,-0.04315625876188278,0.0063210129737854,0.02798902429640293
1760107201525318400,7.901318359375,-0.004012318328022957,0.020434701815247536,0.08638708293437958
1760107201535383600,7.911383544921875,0.024100542068481445,0.015903865918517113,0.12741094827651978
1760107201545448400,7.921448486328125,0.031135814264416695,0.020418988540768623,0.13277456164360046
1760107201555514400,7.931514404296875,0.02340226247906685,0.021379856392741203,0.0912763848900795
1760107201565579500,7.94157958984375,0.00012170646368758753,-0.0028751487843692303,0.020981714129447937
1760107201575644400,7.95164453125,-0.030173081904649734,-0.03844752535223961,-0.038059234619140625
1760107201585709600,7.96170947265625,-0.05825931206345558,-0.06606397032737732,-0.05853335186839104
1760107201595774500,7.9717744140625,-0.0745120495557785,-0.06406420469284058,-0.03951917961239815
1760107201605839600,7.981839599609375,-0.07577332109212875,-0.04691397771239281,0.006704241503030062
1760107201615905500,7.991905517578125,-0.05705635994672775,-0.036796629428863525,0.06423438340425491
1760107201625970400,8.001970458984376,-0.027287546545267105,-0.043902743607759476,0.11116593331098557
1760107201636035300,8.012035400390625,0.011502991430461407,-0.0526626780629158,0.1384769231081009
1760107201646100500,8.0221005859375,0.04104090854525566,-0.028252676129341125,0.13755466043949127
1760107201656165400,8.032165283203126,0.04352830350399017,0.02069755457341671,0.12313125282526016
1760107201666231300,8.042231201171875,0.026864103972911835,0.07025312632322311,0.08332578092813492
1760107201676296400,8.05229638671875,0.01241991762071848,0.09483516216278076,0.038012098520994186
1760107201686361600,8.062361572265624,0.018505508080124855,0.11539024114608765,-0.008146876469254494
1760107201696426500,8.072426513671875,0.026913372799754143,0.11598918586969376,-0.05874906852841377
1760107201706491400,8.082491455078125,0.028319522738456726,0.08885477483272552,-0.11848350614309311
1760107201716556500,8.092556640625,0.019162509590387344,0.03626532852649689,-0.17651431262493134
1760107201726622500,8.10262255859375,0.014554175548255444,-0.034980352967977524,-0.2286243885755539
1760107201736687400,8.112687255859376,0.021090637892484665,-0.05407948046922684,-0.2487565577030182
1760107201746752500,8.12275244140625,0.03183968737721443,-0.021673869341611862,-0.228803351521492
1760107201756817400,8.1328173828125,0.05450398847460747,0.03823180869221687,-0.18166913092136383
1760107201766882300,8.14288232421875,0.09489055722951889,0.08919832110404968,-0.12153521925210953
1760107201776947500,8.152947509765625,0.13418550789356232,0.11317422240972519,-0.0653798058629036
1760107201787013600,8.163013671875,0.17664507031440735,0.11029854416847229,0.00689039658755064
1760107201797078300,8.173078369140624,0.2143234759569168,0.15844237804412842,0.09945175796747208
1760107201807143400,8.183143310546875,0.2477155178785324,0.1918320208787918,0.19500410556793213
1760107201817208600,8.19320849609375,0.26083531975746155,0.21183742582798004,0.2613266706466675
1760107201827273500,8.2032734375,0.2725050151348114,0.20031632483005524,0.2813813388347626
1760107201837339400,8.21333935546875,0.27552372217178345,0.14849093556404114,0.2555508017539978
1760107201847404500,8.223404541015626,0.284676730632782,0.06205698102712631,0.21466197073459625
1760107201857469400,8.233469482421874,0.27906838059425354,0.007642739452421665,0.16444966197013855
1760107201867534300,8.243534423828125,0.2696967124938965,-0.032821331173181534,0.1267145425081253
1760107201877599500,8.253599609375,0.2608286738395691,-0.05417801812291145,0.1050364077091217
1760107201887664600,8.26366455078125,0.2629410922527313,-0.052144695073366165,0.08527708053588867
1760107201897730300,8.273730224609375,0.2637730538845062,-0.05482782796025276,0.06620245426893234
1760107201907795500,8.28379541015625,0.2522985637187958,-0.0657462552189827,0.036256276071071625
1760107201917860600,8.293860595703125,0.23552970588207245,-0.08281844854354858,-0.0006801713607273996
1760107201927925200,8.30392529296875,0.20935535430908203,-0.09611082077026367,-0.05385657399892807
1760107201937990400,8.313990478515626,0.17555291950702667,-0.10653762519359589,-0.10399830341339111
1760107201948055600,8.3240556640625,0.14718972146511078,-0.11382456868886948,-0.13934271037578583
1760107201958121500,8.33412158203125,0.13279692828655243,-0.10446089506149292,-0.13887585699558258
1760107201968186400,8.344186279296874,0.12629881501197815,-0.0780940055847168,-0.09883789718151093
1760107201978251500,8.35425146484375,0.1371924728155136,-0.028482507914304733,-0.01998196355998516
1760107201988316400,8.36431640625,0.16248078644275665,0.01871776208281517,0.07165980339050293
1760107201998381300,8.37438134765625,0.18589450418949127,0.04162414371967316,0.1491633802652359
1760107202008446500,8.384446533203125,0.1899414360523224,0.05060272291302681,0.1853237897157669
1760107202018512400,8.394512451171876,0.17165938019752502,0.03080771304666996,0.16447629034519196
1760107202028577500,8.40457763671875,0.1527155041694641,-0.013197827152907848,0.10833259671926498
1760107202038642400,8.414642333984375,0.13186562061309814,-0.05658232048153877,0.04711158573627472
1760107202048707600,8.42470751953125,0.12647591531276703,-0.069627545773983,0.01179300993680954
1760107202058772500,8.4347724609375,0.11680012196302414,-0.04962800815701485,0.00926460511982441
1760107202068838400,8.44483837890625,0.11261975765228271,-0.018399247899651527,0.04042545333504677
1760107202078903600,8.454903564453126,0.09536087512969971,0.011243865825235844,0.07463295757770538
1760107202088968400,8.464968505859375,0.08346693217754364,0.02616768889129162,0.1079283282160759
1760107202099033300,8.475033447265625,0.0675465539097786,0.016409067437052727,0.12248783558607101
1760107202109098500,8.485098388671876,0.05570347607135773,-0.008040083572268486,0.11429115384817123
1760107202119163400,8.495163330078125,0.03851596638560295,-0.0461571104824543,0.10314396023750305
1760107202129229600,8.5052294921875,0.02767344005405903,-0.09289371967315674,0.10025709867477417
1760107202139294500,8.51529443359375,0.021818479523062706,-0.13084137439727783,0.11746218055486679
1760107202149359400,8.525359375,0.020268786698579788,-0.13814322650432587,0.15651743113994598
1760107202159424500,8.535424560546875,0.01846848987042904,-0.1269286572933197,0.20249851047992706
1760107202169489400,8.545489501953124,0.009287508204579353,-0.09955162554979324,0.23803839087486267
1760107202179555300,8.555555419921875,-0.017127055674791336,-0.08147355169057846,0.24543187022209167
1760107202189620500,8.565620361328126,-0.04808390513062477,-0.058936286717653275,0.22534923255443573
1760107202199685600,8.575685546875,-0.07186087220907211,-0.03153608739376068,0.18048588931560516
1760107202209750500,8.58575048828125,-0.09390971809625626,-0.02839435636997223,0.11753488332033157
1760107202219815400,8.5958154296875,-0.10626358538866043,-0.06232516095042229,0.06148945912718773
1760107202229880800,8.605880859375,-0.11444482207298279,-0.13562707602977753,0.029862292110919952
1760107202239946500,8.615946533203125,-0.11859296262264252,-0.16839060187339783,0.04634805768728256
1760107202250011600,8.62601171875,-0.12761041522026062,-0.18111678957939148,0.09280956536531448
1760107202260076800,8.636076904296875,-0.13722816109657288,-0.13775546848773956,0.1581060141324997
1760107202270141700,8.6461416015625,-0.16333672404289246,-0.06475076824426651,0.2220386564731598
1760107202280206600,8.65620654296875,-0.20857611298561096,0.00845633540302515,0.2510676383972168
1760107202290271700,8.666271728515625,-0.26203426718711853,0.05548296496272087,0.23892949521541595
1760107202300337700,8.676337646484376,-0.2881375253200531,0.09524582326412201,0.21981199085712433
1760107202310402600,8.686402587890624,-0.2837851047515869,0.12770070135593414,0.1926293671131134
1760107202320467700,8.6964677734375,-0.28611457347869873,0.10758904367685318,0.15553073585033417
1760107202330532900,8.706532958984376,-0.26769590377807617,0.07577306032180786,0.10377486795186996
1760107202340597500,8.716597412109374,-0.2505272924900055,0.06412359327077866,0.03996312990784645
1760107202350662700,8.72666259765625,-0.24935176968574524,0.03315768763422966,-0.03826136887073517
1760107202360728800,8.736728759765626,-0.2896248996257782,0.0062733422964811325,-0.13812857866287231
1760107202370793700,8.746793701171875,-0.36153849959373474,-0.021352160722017288,-0.25534334778785706
1760107202380858600,8.756858642578125,-0.4316840171813965,-0.0545031875371933,-0.39625653624534607
1760107202390923800,8.766923828125,-0.4723222553730011,-0.07314691692590714,-0.5308241844177246
1760107202400989000,8.776989013671875,-0.46487313508987427,-0.04396506026387215,-0.614632785320282
1760107202411054600,8.7870546875,-0.43116071820259094,0.010576478205621243,-0.6319617033004761
1760107202421119700,8.79711962890625,-0.3769363462924957,0.06667570024728775,-0.5802026391029358
1760107202431185000,8.807184814453125,-0.3327968716621399,0.09579390287399292,-0.4895577132701874
1760107202441249500,8.81724951171875,-0.2907327711582184,0.10704576224088669,-0.3691932260990143
1760107202451314700,8.827314697265624,-0.25795483589172363,0.1281563639640808,-0.21756161749362946
1760107202461379800,8.8373798828125,-0.24788597226142883,0.1370190978050232,-0.06310839205980301
1760107202471445800,8.84744580078125,-0.24596981704235077,0.12372380495071411,0.08243975043296814
1760107202481510700,8.8575107421875,-0.246677428483963,0.1006467193365097,0.1811724454164505
1760107202491575800,8.867575927734375,-0.23051735758781433,0.07502949982881546,0.23493102192878723
1760107202501640700,8.877640625,-0.19481369853019714,0.06254540383815765,0.24142567813396454
1760107202511705600,8.88770556640625,-0.15531715750694275,0.0574055016040802,0.22190922498703003
1760107202521771800,8.897771728515625,-0.12047368288040161,0.04098764806985855,0.19012333452701569
1760107202531836700,8.907836669921876,-0.11411858350038528,0.030066022649407387,0.15184332430362701
1760107202541901600,8.917901611328125,-0.13619539141654968,0.03742619976401329,0.10692911595106125
1760107202551966700,8.927966796875,-0.1686508059501648,0.025783127173781395,0.04767937213182449
1760107202562031900,8.938031982421874,-0.2098669409751892,-0.012820190750062466,-0.020960409194231033
1760107202572096500,8.948096435546875,-0.2607775330543518,-0.07463029772043228,-0.0978701040148735
1760107202582162700,8.95816259765625,-0.307645708322525,-0.1503780484199524,-0.16877597570419312
1760107202592227600,8.9682275390625,-0.33461233973503113,-0.2148398607969284,-0.22129003703594208
1760107202602292700,8.978292724609375,-0.3379189074039459,-0.233006089925766,-0.21867188811302185
1760107202612357600,8.988357666015625,-0.3114662766456604,-0.18451817333698273,-0.17572389543056488
1760107202622422800,8.9984228515625,-0.268120139837265,-0.10067281126976013,-0.1059352234005928
1760107202632487700,9.00848779296875,-0.22863557934761047,-0.024276843294501305,-0.033254094421863556
1760107202642553900,9.018553955078126,-0.19535937905311584,0.015053251758217812,0.021290108561515808
1760107202652618800,9.02861865234375,-0.17475156486034393,0.01254934724420309,0.04989911615848541
1760107202662683600,9.03868359375,-0.15684553980827332,-0.0029230855870991945,0.04952707141637802
1760107202672748800,9.048748779296876,-0.1459375023841858,-0.02931314706802368,0.025045432150363922
1760107202682813700,9.058813720703125,-0.1296227127313614,-0.0818711668252945,0.0054216631688177586
1760107202692878800,9.06887890625,-0.10367339849472046,-0.11426425725221634,0.0027987160719931126
1760107202702944800,9.07894482421875,-0.07665962725877762,-0.0876249223947525,0.01787886582314968
1760107202713009700,9.089009765625,-0.04537174105644226,-0.07310936599969864,0.03057761676609516
1760107202723074600,9.099074462890625,-0.02184111624956131,-0.07226300984621048,0.04581436142325401
1760107202733139700,9.1091396484375,-0.014670821838080883,-0.07608810812234879,0.05753413215279579
1760107202743204600,9.11920458984375,-0.051529768854379654,-0.05176093056797981,0.0632316991686821
1760107202753269800,9.129269775390625,-0.11304426193237305,-0.03199734911322594,0.04340206831693649
1760107202763335700,9.139335693359374,-0.16019606590270996,-0.02876666747033596,0.016710270196199417
1760107202773400800,9.14940087890625,-0.19225546717643738,-0.03431190177798271,-0.017554225400090218
1760107202783465700,9.1594658203125,-0.19536817073822021,-0.044501155614852905,-0.05483262240886688
1760107202793530600,9.169530517578124,-0.18744313716888428,-0.060016997158527374,-0.0788937509059906
1760107202803595800,9.179595703125,-0.1754855364561081,-0.06722591072320938,-0.08832746744155884
1760107202813661700,9.18966162109375,-0.16365258395671844,-0.05705716088414192,-0.07705696672201157
1760107202823726600,9.1997265625,-0.1442040503025055,-0.05090152844786644,-0.05601746216416359
1760107202833791700,9.209791748046875,-0.12225960195064545,-0.030764570459723473,-0.014164821244776249
1760107202843857000,9.21985693359375,-0.11423922330141068,-0.002737196860834956,0.025977538898587227
1760107202853921500,9.229921630859375,-0.10751260817050934,0.013318202458322048,0.06425940990447998
1760107202863986700,9.239986572265625,-0.10038386285305023,0.004064250271767378,0.08880364149808884
1760107202874052900,9.250052978515624,-0.08369596302509308,-0.026084598153829575,0.1201021745800972
1760107202884117500,9.260117431640625,-0.06397125869989395,-0.046180278062820435,0.14517369866371155
1760107202894182700,9.2701826171875,-0.050582218915224075,-0.05824040248990059,0.16994430124759674
1760107202904247800,9.280247802734374,-0.03437475115060806,-0.0593823678791523,0.17970691621303558
1760107202914312700,9.290312744140625,-0.016997626051306725,-0.05879434198141098,0.19251778721809387
1760107202924377600,9.300377685546875,-0.005585980135947466,-0.04710998758673668,0.2065124213695526
1760107202934443800,9.31044384765625,0.005930326879024506,-0.036078110337257385,0.2122155874967575
1760107202944508700,9.3205087890625,0.010402306914329529,-0.03415530547499657,0.21455863118171692
1760107202954573600,9.330573486328126,0.01056449394673109,-0.030908381566405296,0.21972836554050446
1760107202964638700,9.340638671875,0.018924955278635025,-0.013376259244978428,0.2312300205230713
1760107202974703900,9.350703857421875,0.032890040427446365,0.023026488721370697,0.248528853058815
1760107202984768500,9.3607685546875,0.05582118779420853,0.06150437146425247,0.26531314849853516
1760107202994834700,9.370834716796875,0.09504874795675278,0.0978487953543663,0.27787262201309204
1760107203004899800,9.38089990234375,0.13829955458641052,0.13584038615226746,0.2783413529396057
1760107203014964700,9.39096484375,0.1571693867444992,0.16039952635765076,0.27252447605133057
1760107203025029600,9.401029541015625,0.15048910677433014,0.16182352602481842,0.2495397925376892
1760107203035094800,9.4110947265625,0.1559227555990219,0.15729428827762604,0.22412657737731934
1760107203045160000,9.421159912109376,0.18046271800994873,0.16035185754299164,0.19578255712985992
1760107203055225600,9.4312255859375,0.17066948115825653,0.09584423899650574,0.13864842057228088
1760107203065290800,9.441290771484375,0.13771019876003265,-0.05637672170996666,0.027416976168751717
1760107203075355600,9.451355712890624,0.11622727662324905,-0.1786067634820938,-0.1368981897830963
1760107203085420500,9.461420654296875,0.13044242560863495,-0.265098512172699,-0.3132798969745636
1760107203095485700,9.471485595703125,0.1695253849029541,-0.2691054940223694,-0.4166398346424103
1760107203105550800,9.48155078125,0.22278115153312683,-0.14612258970737457,-0.4027005732059479
1760107203115616800,9.49161669921875,0.279106467962265,0.035662923008203506,-0.30167436599731445
1760107203125681700,9.501681640625,0.310605525970459,0.16070711612701416,-0.17043457925319672
1760107203135746800,9.511746826171875,0.321847528219223,0.22062371671199799,-0.054716773331165314
1760107203145811700,9.521811767578125,0.3276239335536957,0.23831190168857574,0.03695002943277359
1760107203155876600,9.531876708984376,0.3358437716960907,0.2546471953392029,0.12913188338279724
1760107203165942800,9.54194287109375,0.34507644176483154,0.27516552805900574,0.21753685176372528
1760107203176007700,9.552007568359375,0.35674986243247986,0.31752416491508484,0.28527194261550903
1760107203186072600,9.562072509765626,0.38512691855430603,0.3489966094493866,0.32115352153778076
1760107203196137700,9.5721376953125,0.4052484333515167,0.32360124588012695,0.31246283650398254
1760107203206202600,9.58220263671875,0.38516101241111755,0.23309236764907837,0.25555720925331116
1760107203216267500,9.592267578125,0.3233242630958557,0.1360105723142624,0.15162095427513123
1760107203226333700,9.602333740234375,0.24646517634391785,0.0548856183886528,0.023004917427897453
1760107203236398300,9.6123984375,0.1833522468805313,-0.015354988165199757,-0.12207876890897751
1760107203246463200,9.622463134765624,0.13417431712150574,-0.0707428827881813,-0.2582102417945862
1760107203256528400,9.6325283203125,0.10402599722146988,-0.11650477349758148,-0.3692733943462372
1760107203266593300,9.64259326171875,0.09965868294239044,-0.12259222567081451,-0.43090346455574036
1760107203276658200,9.652658203125,0.10640553385019302,-0.08984733372926712,-0.4498412013053894
1760107203286724400,9.662724365234375,0.09979050606489182,-0.031194936484098434,-0.42125508189201355
1760107203296789500,9.67278955078125,0.09759873151779175,0.02363874949514866,-0.3784213364124298
1760107203306854100,9.682854248046874,0.09986161440610886,0.07551020383834839,-0.3260643780231476
1760107203316919300,9.692919189453125,0.1034129410982132,0.09293526411056519,-0.27124083042144775
1760107203326984400,9.702984375,0.09270969778299332,0.09492118656635284,-0.23241299390792847
1760107203337049300,9.71304931640625,0.07280336320400238,0.0817401334643364,-0.21228376030921936
1760107203347115300,9.723115234375,0.05477110296487808,0.05585074797272682,-0.21622124314308167
1760107203357180400,9.733180419921876,0.0659119039773941,0.02063789963722229,-0.2145485132932663
1760107203367245300,9.743245361328125,0.10051994770765305,0.0075753615237772465,-0.1986539661884308
1760107203377310200,9.753310302734375,0.14469966292381287,0.014406103640794754,-0.1605561226606369
1760107203387375400,9.763375244140626,0.18440712988376617,0.028738969936966896,-0.10576850920915604
1760107203397440500,9.7734404296875,0.22624272108078003,0.04536828026175499,-0.06246524304151535
1760107203407506200,9.783506103515625,0.2448691427707672,0.04680478945374489,-0.028569325804710388
1760107203417571300,9.7935712890625,0.22408290207386017,0.02377403900027275,-0.014124607667326927
1760107203427636500,9.803636474609375,0.17332890629768372,-0.01883067935705185,-0.004609399009495974
1760107203437701000,9.813701171875,0.11523178219795227,-0.08065782487392426,0.004160390235483646
1760107203447766300,9.823766357421874,0.06706851720809937,-0.13559697568416595,0.031682293862104416
1760107203457831400,9.83383154296875,0.05062029883265495,-0.15138766169548035,0.06863099336624146
1760107203467897300,9.8438974609375,0.052206479012966156,-0.14122769236564636,0.10225473344326019
1760107203477962200,9.853962158203124,0.061956845223903656,-0.13065680861473083,0.1194307878613472
1760107203488027400,9.86402734375,0.058291271328926086,-0.12236399203538895,0.11118324846029282
1760107203498092300,9.87409228515625,0.030346985906362534,-0.11837697774171829,0.08009057492017746
1760107203508157200,9.8841572265625,-0.005178516730666161,-0.11549117416143417,0.036375053226947784
1760107203518222300,9.894222412109375,-0.020427243784070015,-0.11138191819190979,0.014912636950612068
1760107203528288300,9.904288330078124,-0.020777184516191483,-0.09828396141529083,0.024448351934552193
1760107203538353400,9.914353515625,-0.02845774032175541,-0.08164293318986893,0.06706265360116959
1760107203548418300,9.924418212890625,-0.04399994760751724,-0.08004184067249298,0.1136448085308075
1760107203558483500,9.9344833984375,-0.07395545393228531,-0.09658965468406677,0.15323881804943085
1760107203568548400,9.94454833984375,-0.10745641589164734,-0.1190776526927948,0.16464540362358093
1760107203578613200,9.95461328125,-0.14487330615520477,-0.13888810575008392,0.15019376575946808
1760107203588679400,9.964679443359374,-0.18846578896045685,-0.15519091486930847,0.10869398713111877
1760107203598744300,9.974744384765625,-0.209396630525589,-0.1818307787179947,0.052986517548561096
1760107203608809200,9.984809326171876,-0.20996467769145966,-0.2124643325805664,0.003778493031859398
1760107203618874400,9.994874267578124,-0.1914069801568985,-0.23012374341487885,-0.008673915639519691
1760107203628939300,10.004939208984375,-0.17530924081802368,-0.21963141858577728,-0.006076801102608442
1760107203639004200,10.015004150390626,-0.1671924591064453,-0.20675024390220642,0.01044411864131689
1760107203649070300,10.0250703125,-0.1560705602169037,-0.16604888439178467,0.05326854810118675
1760107203659135200,10.03513525390625,-0.15801866352558136,-0.13262489438056946,0.10020995885133743
1760107203669200400,10.045200439453126,-0.18242627382278442,-0.10937362909317017,0.1375003308057785
1760107203679265300,10.055265380859375,-0.21580766141414642,-0.07859733700752258,0.15671983361244202
1760107203689330400,10.065330322265625,-0.2513669729232788,-0.030316093936562538,0.1527719646692276
1760107203699395300,10.075395263671876,-0.2893998622894287,0.014120612293481827,0.11397610604763031
1760107203709461200,10.085461181640625,-0.33803555369377136,0.024400947615504265,0.023140739649534225
1760107203719526400,10.0955263671875,-0.3966866433620453,0.010280867107212543,-0.11554151028394699
1760107203729591300,10.10559130859375,-0.45240527391433716,-0.016143016517162323,-0.2763974964618683
1760107203739656400,10.115656494140625,-0.48588600754737854,-0.024764468893408775,-0.4134994447231293
1760107203749721300,10.125721435546875,-0.5138979554176331,0.01751534454524517,-0.49692562222480774
1760107203759786200,10.1357861328125,-0.5189233422279358,0.10827773809432983,-0.5105237364768982
1760107203769852400,10.145852294921875,-0.4954425096511841,0.19667097926139832,-0.45740216970443726
1760107203779917300,10.155917236328126,-0.4447023570537567,0.2321522831916809,-0.36060798168182373
1760107203789982200,10.165982177734374,-0.369032621383667,0.20857878029346466,-0.24602308869361877
1760107203800047400,10.17604736328125,-0.2938894033432007,0.16541080176830292,-0.12772227823734283
1760107203810112300,10.1861123046875,-0.2483363002538681,0.12032667547464371,-0.02538471855223179
1760107203820177400,10.196177490234374,-0.2476063370704651,0.047676973044872284,0.053471747785806656
1760107203830243300,10.206243408203125,-0.2665722966194153,-0.012583170086145401,0.10385715961456299
1760107203840308500,10.21630859375,-0.29187020659446716,-0.053302101790905,0.13127785921096802
1760107203850373400,10.226373291015625,-0.30667844414711,-0.0700741559267044,0.1298767775297165
1760107203860438300,10.236438232421875,-0.2960902452468872,-0.07490087300539017,0.11527785658836365
1760107203870503400,10.24650341796875,-0.2596757709980011,-0.07215142250061035,0.0882723405957222
1760107203880568300,10.256568359375,-0.2179051637649536,-0.0737336054444313,0.05416923016309738
1760107203890634200,10.26663427734375,-0.18223771452903748,-0.09218239039182663,0.006744721904397011
1760107203900699400,10.276699462890624,-0.15802425146102905,-0.1268029510974884,-0.05028926953673363
1760107203910764300,10.286764404296875,-0.1376979500055313,-0.17831355333328247,-0.10293996334075928
1760107203920829200,10.2968291015625,-0.12751242518424988,-0.198918417096138,-0.1477830708026886
1760107203930894300,10.306894287109374,-0.12734383344650269,-0.19933786988258362,-0.1867019683122635
1760107203940959200,10.316959228515625,-0.15136688947677612,-0.18001344799995422,-0.2188127636909485
1760107203951025200,10.327025146484376,-0.18131066858768463,-0.176817387342453,-0.24033591151237488
1760107203961090300,10.33709033203125,-0.18542419373989105,-0.16576074063777924,-0.22066660225391388
1760107203971155500,10.347155517578125,-0.15519624948501587,-0.09951061010360718,-0.14530420303344727
1760107203981220400,10.357220458984376,-0.10619167983531952,0.000027430558475316502,-0.06395261734724045
1760107203991285200,10.36728515625,-0.05224616080522537,0.08127754181623459,5.326322138898831e-7
1760107204001350400,10.377350341796875,-0.012077169492840767,0.11928298324346542,0.02924230694770813
1760107204011416300,10.387416259765626,-0.004848284646868706,0.1294994056224823,0.01750336028635502
1760107204021481200,10.397481201171875,-0.01372433453798294,0.1507927030324936,-0.01543568167835474
1760107204031546400,10.40754638671875,-0.013259879313409328,0.16823028028011322,-0.06279946863651276
1760107204041611500,10.417611572265624,0.0008503473363816738,0.16056278347969055,-0.12833186984062195
1760107204051676200,10.42767626953125,0.018428275361657143,0.1360582411289215,-0.20264685153961182
1760107204061741300,10.4377412109375,0.021977471187710762,0.11509862542152405,-0.26426681876182556
1760107204071807500,10.447807373046874,0.03996286168694496,0.12984241545200348,-0.30855730175971985
1760107204081872100,10.4578720703125,0.044730186462402344,0.17880995571613312,-0.32417887449264526
1760107204091937300,10.467937255859376,0.05120033770799637,0.2722192704677582,-0.32796695828437805
1760107204102002400,10.47800244140625,0.07610488682985306,0.33653807640075684,-0.33127832412719727
1760107204112067300,10.4880673828125,0.1218436136841774,0.37259700894355774,-0.3371010720729828
1760107204122132200,10.49813232421875,0.1577821671962738,0.4104461073875427,-0.32908281683921814
1760107204132198400,10.508198486328125,0.1612466722726822,0.4502968490123749,-0.302529513835907
1760107204142263300,10.51826318359375,0.12929247319698334,0.5409128069877625,-0.27007436752319336
1760107204152328200,10.528328125,0.0812423899769783,0.5708725452423096,-0.23015783727169037
1760107204162393300,10.538393310546875,0.039628103375434875,0.531621515750885,-0.15752145648002625
1760107204172458500,10.54845849609375,0.06067000329494476,0.45807570219039917,-0.059508066624403
1760107204182523100,10.558523193359376,0.16685423254966736,0.40349313616752625,0.03555586189031601
1760107204192589300,10.56858935546875,0.3171025812625885,0.35238388180732727,0.095208540558815
1760107204202654500,10.578654541015625,0.45707327127456665,0.30976876616477966,0.09945362061262131
1760107204212719400,10.58871923828125,0.5552880167961121,0.23200048506259918,0.047813061624765396
1760107204222784300,10.5987841796875,0.5883777737617493,0.12468840181827545,-0.02003362961113453
1760107204232849400,10.608849365234375,0.5975925922393799,0.030724888667464256,-0.05568110570311546
1760107204242914600,10.61891455078125,0.5686948895454407,-0.07184702903032303,-0.029533125460147858
1760107204252980200,10.628980224609375,0.5263980031013489,-0.17216697335243225,0.05422915145754814
1760107204263045400,10.63904541015625,0.47757694125175476,-0.22818656265735626,0.17562562227249146
1760107204273110300,10.6491103515625,0.4281177818775177,-0.23351848125457764,0.27413806319236755
1760107204283175200,10.659175048828125,0.38706302642822266,-0.24781087040901184,0.32537969946861267
1760107204293240300,10.669240234375,0.3724033832550049,-0.29210323095321655,0.3149898946285248
1760107204303305500,10.679305419921874,0.3830778896808624,-0.3308442234992981,0.25057336688041687
1760107204313371400,10.689371337890625,0.38681429624557495,-0.3633214831352234,0.1655855029821396
1760107204323436300,10.699436279296876,0.4012470245361328,-0.34916090965270996,0.09917585551738739
1760107204333501400,10.70950146484375,0.4298008978366852,-0.24890808761119843,0.0650852620601654
1760107204343566300,10.71956640625,0.4543885290622711,-0.11690318584442139,0.06186922639608383
1760107204353631200,10.72963134765625,0.47476786375045776,0.014781609177589417,0.07326488941907883
1760107204363696400,10.7396962890625,0.47682246565818787,0.08304854482412338,0.05837196484208107
1760107204373762300,10.74976220703125,0.4165160059928894,0.06793218106031418,0.0013853764394298196
1760107204383827500,10.759827392578124,0.29207926988601685,0.01016821525990963,-0.0821731686592102
1760107204393892400,10.769892333984375,0.13542333245277405,-0.03795244172215462,-0.1752581000328064
1760107204403957200,10.779957275390625,-0.00691889226436615,-0.05914907529950142,-0.25950801372528076
1760107204414022400,10.7900224609375,-0.10045629739761353,-0.030423153191804886,-0.3099554777145386
1760107204424087300,10.80008740234375,-0.12087742239236832,0.07200654596090317,-0.3181401491165161
1760107204434153200,10.8101533203125,-0.08880230784416199,0.18502391874790192,-0.2943163216114044
1760107204444218400,10.82021826171875,-0.016752881929278374,0.2860623896121979,-0.26780667901039124
1760107204454283300,10.830283203125,0.07138124108314514,0.3573765158653259,-0.25565147399902344
1760107204464348400,10.840348388671876,0.152702197432518,0.3247791528701782,-0.2610286772251129
1760107204474413300,10.850413330078124,0.24136388301849365,0.22657908499240875,-0.2646321952342987
1760107204484478200,10.860478271484375,0.30959248542785645,0.1385757178068161,-0.2324279099702835
1760107204494544400,10.87054443359375,0.34611454606056213,0.07021530717611313,-0.139704629778862
1760107204504609300,10.880609375,0.3609776198863983,0.03846883028745651,-0.014742461033165455
1760107204514674400,10.89067431640625,0.3504270017147064,0.03436889126896858,0.10110930353403091
1760107204524739300,10.9007392578125,0.31610870361328125,0.02720179408788681,0.1485884040594101
1760107204534804200,10.91080419921875,0.2545044422149658,0.03369724377989769,0.12901896238327026
1760107204544869400,10.920869384765625,0.18602871894836426,0.055145010352134705,0.01936597377061844
1760107204554935300,10.930935302734374,0.12557044625282288,0.06349481642246246,-0.1375000774860382
1760107204565000200,10.941000244140625,0.07858455926179886,0.0608990378677845,-0.30775195360183716
1760107204575065300,10.9510654296875,0.052442699670791626,0.052563607692718506,-0.4378849267959595
1760107204585130200,10.961130126953124,0.05369358882308006,0.04526707902550697,-0.5048429369926453
1760107204595195400,10.9711953125,0.07557038962841034,0.022183598950505257,-0.4962158799171448
1760107204605260300,10.98126025390625,0.08306293189525604,0.0021947110071778297,-0.40885087847709656
1760107204615326500,10.991326416015625,0.07077110558748245,-0.007156712934374809,-0.2691885828971863
1760107204625391400,11.001391357421875,0.033252228051424026,0.015741411596536636,-0.09939795732498169
1760107204635456300,11.011456298828126,-0.022183332592248917,0.0872318372130394,0.054604656994342804
1760107204645521400,11.021521484375,-0.06885097175836563,0.13095349073410034,0.15629613399505615
1760107204655586300,11.03158642578125,-0.10141903162002563,0.12861230969429016,0.17752684652805328
1760107204665651200,11.041651123046876,-0.11214224994182587,0.09455393254756927,0.12196318805217743
1760107204675716400,11.05171630859375,-0.10552429407835007,0.053347110748291016,0.031126493588089943
1760107204685782500,11.061782470703125,-0.07995261996984482,0.008578574284911156,-0.06669194251298904
1760107204695847200,11.07184716796875,-0.06010594591498375,0.013917413540184498,-0.12736248970031738
1760107204705912300,11.081912353515625,-0.05453088507056236,0.03880491852760315,-0.1460980921983719
1760107204715977500,11.0919775390625,-0.06890822947025299,0.062374163419008255,-0.11724726110696793
1760107204726042400,11.10204248046875,-0.0770827978849411,0.09019806981086731,-0.06143752858042717
1760107204736107300,11.112107177734375,-0.07725004851818085,0.08496229350566864,0.011679026298224926
1760107204746173400,11.12217333984375,-0.07652513682842255,0.04009655490517616,0.08591357618570328
1760107204756238300,11.13223828125,-0.08364482969045639,-0.026862241327762604,0.14661873877048492
1760107204766303200,11.14230322265625,-0.09080420434474945,-0.08301205933094025,0.20244339108467102
1760107204776368400,11.152368408203126,-0.09616647660732269,-0.13845294713974,0.23896251618862152
1760107204786433300,11.162433349609374,-0.10436848551034927,-0.1888900250196457,0.24848811328411102
1760107204796498200,11.172498291015625,-0.11435001343488693,-0.21562603116035461,0.23857715725898743
1760107204806564400,11.182564453125,-0.10293969511985779,-0.22625817358493805,0.22315745055675507
1760107204816629500,11.19262939453125,-0.07721702009439468,-0.2135210633277893,0.21651633083820343
1760107204826694100,11.202694091796875,-0.05902683362364769,-0.17407698929309845,0.22601927816867828
1760107204836759300,11.21275927734375,-0.05198650062084198,-0.11439927667379379,0.2340734750032425
1760107204846824400,11.222824462890625,-0.05810751020908356,-0.086110919713974,0.23362180590629578
1760107204856889300,11.232889404296875,-0.07344172894954681,-0.08853412419557571,0.22217527031898499
1760107204866955300,11.242955322265624,-0.10221478343009949,-0.1191471666097641,0.20372836291790009
1760107204877020400,11.2530205078125,-0.15884050726890564,-0.17685545980930328,0.1829594373703003
1760107204887085300,11.263085205078125,-0.217429518699646,-0.23592650890350342,0.14515478909015656
1760107204897150200,11.273150146484374,-0.2752459645271301,-0.26612383127212524,0.09097651392221451
1760107204907215400,11.28321533203125,-0.3231799304485321,-0.296705424785614,0.012358931824564934
1760107204917280500,11.293280517578125,-0.33884197473526,-0.2989949584007263,-0.06725440174341202
1760107204927346200,11.30334619140625,-0.32630300521850586,-0.2796878516674042,-0.1313079595565796
1760107204937411300,11.313411376953125,-0.30881351232528687,-0.24790087342262268,-0.15350407361984253
1760107204947476500,11.3234765625,-0.28435608744621277,-0.18084435164928436,-0.13782204687595367
1760107204957541000,11.333541015625,-0.25463786721229553,-0.12557204067707062,-0.06792125850915909
1760107204967606300,11.343606201171875,-0.19413885474205017,-0.07192878425121307,0.04379381984472275
1760107204977671400,11.35367138671875,-0.13465821743011475,-0.038005173206329346,0.16069966554641724
1760107204987736300,11.363736328125,-0.11333348602056503,-0.09922325611114502,0.25318512320518494
1760107204997802200,11.37380224609375,-0.08240113407373428,-0.168899267911911,0.3124265968799591
1760107205007867400,11.383867431640626,-0.06325593590736389,-0.15552008152008057,0.3405189514160156
1760107205017932300,11.393932373046875,-0.09078769385814667,-0.015738217160105705,0.3051748275756836
1760107205027997200,11.4039970703125,-0.16457855701446533,0.19477134943008423,0.18751956522464752
1760107205038062300,11.414062255859376,-0.2277708500623703,0.3530805706977844,-0.035533759742975235
1760107205048127500,11.42412744140625,-0.26240551471710205,0.3344871699810028,-0.3129217028617859
1760107205058193400,11.434193359375,-0.27252286672592163,0.21646332740783691,-0.5616881251335144
1760107205068258300,11.44425830078125,-0.2855941951274872,0.07983411103487015,-0.7112038135528564
1760107205078323500,11.454323486328125,-0.2935437262058258,-0.03725815564393997,-0.7487794160842896
1760107205088388400,11.464388427734375,-0.3330557346343994,-0.1262681931257248,-0.6946266889572144
1760107205098453200,11.474453369140624,-0.3797808885574341,-0.16541293263435364,-0.5701606869697571
1760107205108518400,11.484518310546875,-0.4193141758441925,-0.1616365611553192,-0.3984200954437256
1760107205118584300,11.494584228515626,-0.45008113980293274,-0.08247064054012299,-0.19003385305404663
1760107205128649200,11.504649169921874,-0.4743169844150543,0.044799696654081345,0.01076609455049038
1760107205138714400,11.51471435546875,-0.4772142171859741,0.15923093259334564,0.16305363178253174
1760107205148779500,11.524779541015626,-0.4406388998031616,0.1891387701034546,0.24250158667564392
1760107205158844200,11.53484423828125,-0.3505907654762268,0.1435377299785614,0.2829432785511017
1760107205168909300,11.544909423828125,-0.23448893427848816,0.07282999902963638,0.2861427962779999
1760107205178975200,11.554975341796874,-0.13359108567237854,0.01173202320933342,0.2737402021884918
1760107205189040400,11.565040283203125,-0.07782715559005737,-0.03299683332443237,0.217126727104187
1760107205199105300,11.575105224609375,-0.07427290081977844,-0.07996141165494919,0.11737722903490067
1760107205209170400,11.58517041015625,-0.09333127737045288,-0.1286623775959015,0.008284827694296837
1760107205219235300,11.5952353515625,-0.11745871603488922,-0.11978472024202347,-0.08704142272472382
1760107205229300200,11.60530029296875,-0.1640469878911972,-0.07660716027021408,-0.14531537890434265
1760107205239367000,11.615366943359374,-0.2197778970003128,-0.053287457674741745,-0.1811562031507492
1760107205249431800,11.625431884765625,-0.26242947578430176,-0.06569059938192368,-0.20327535271644592
1760107205259497000,11.6354970703125,-0.27892670035362244,-0.10609287768602371,-0.2133016288280487
1760107205269562000,11.64556201171875,-0.26772040128707886,-0.1428743302822113,-0.20648951828479767
1760107205279626800,11.655626708984375,-0.24734614789485931,-0.16806170344352722,-0.16637752950191498
1760107205289692000,11.66569189453125,-0.20793960988521576,-0.1521967202425003,-0.1051141694188118
1760107205299757000,11.675757080078125,-0.15618588030338287,-0.10614055395126343,-0.022644059732556343
1760107205309823000,11.685822998046875,-0.10322199016809464,-0.04014076292514801,0.06319122016429901
1760107205319888000,11.695887939453126,-0.07353253662586212,0.04027658328413963,0.11825686693191528
1760107205329953000,11.705953125,-0.07221747189760208,0.08956077694892883,0.13274739682674408
1760107205340018000,11.716017822265625,-0.07467130571603775,0.1192648783326149,0.11634232103824615
1760107205350082800,11.726082763671876,-0.06641843914985657,0.13815228641033173,0.08514925092458725
1760107205360148000,11.73614794921875,-0.04994438961148262,0.12553155422210693,0.05609256401658058
1760107205370214000,11.7462138671875,-0.02666143886744976,0.07723140716552734,0.05805105343461037
1760107205380279000,11.756279052734374,-0.010431068949401379,0.024929584935307503,0.08306106179952621
1760107205390344000,11.766343994140625,-0.002660231664776802,-0.00392842898145318,0.12032987177371979
1760107205400409000,11.7764091796875,-0.006334594916552305,-0.014512363821268082,0.15145502984523773
1760107205410474000,11.786473876953124,-0.01187902968376875,-0.00950855016708374,0.16911977529525757
1760107205420539000,11.796538818359375,-0.02261503040790558,-0.0036754286848008633,0.15830574929714203
1760107205430605000,11.80660498046875,-0.04716644808650017,-0.0017534252256155014,0.13195297122001648
1760107205440670000,11.816669921875,-0.08000002801418304,0.004486361052840948,0.09942352771759033
1760107205450734800,11.82673486328125,-0.1133183017373085,0.00006125270738266408,0.06997083127498627
1760107205460800000,11.836800048828126,-0.13121101260185242,-0.00538331363350153,0.05657646059989929
1760107205470865000,11.846864990234375,-0.12305721640586853,-0.016743293032050133,0.06444822996854782
1760107205480929800,11.8569296875,-0.09472064673900604,-0.019527096301317215,0.09552785754203796
1760107205490995000,11.866994873046876,-0.0603051520884037,-0.029387183487415314,0.13430002331733704
1760107205501060900,11.877060791015625,-0.036063726991415024,-0.06298322975635529,0.165852352976799
1760107205511126000,11.8871259765625,-0.0201654564589262,-0.10489285737276077,0.19768378138542175
1760107205521191000,11.89719091796875,-0.0113988621160388,-0.1450863480567932,0.22197793424129486
1760107205531256000,11.907256103515625,-0.01386867742985487,-0.18008801341056824,0.23812122642993927
1760107205541321000,11.917321044921875,-0.03015737049281597,-0.2048865705728531,0.24291597306728363
1760107205551385900,11.9273857421875,-0.054734885692596436,-0.19992376863956451,0.25049665570259094
1760107205561452000,11.9374521484375,-0.07729744911193848,-0.16514527797698975,0.2447730004787445
1760107205571517000,11.947516845703126,-0.09079009294509888,-0.16898475587368011,0.23253284394741058
1760107205581582000,11.95758203125,-0.0837649405002594,-0.18432030081748962,0.20237094163894653
1760107205591647000,11.96764697265625,-0.06082313507795334,-0.18736296892166138,0.16399826109409332
1760107205601711900,11.9777119140625,-0.015594938769936562,-0.13721723854541779,0.11990217119455338
1760107205611777000,11.987777099609374,0.04264706373214722,-0.10314103215932846,0.08693250268697739
1760107205621843000,11.997843017578125,0.08357079327106476,-0.11689439415931702,0.07266967743635178
1760107205631907800,12.007907958984376,0.08995731920003891,-0.149061918258667,0.09346630424261093
1760107205641973000,12.017972900390625,0.10382360219955444,-0.14884646236896515,0.1433132141828537
1760107205652038000,12.028037841796875,0.09152539074420929,-0.14855805039405823,0.19241684675216675
1760107205662103000,12.03810302734375,0.06503412872552872,-0.17024177312850952,0.21594826877117157
1760107205672168000,12.04816796875,0.034985415637493134,-0.18684524297714233,0.19619295001029968
1760107205682232800,12.05823291015625,0.024991635233163834,-0.23522503674030304,0.1367647796869278
1760107205692299000,12.068299072265624,-0.0021025657188147306,-0.26743435859680176,0.03224102780222893
1760107205702364000,12.078364013671875,-0.019568374380469322,-0.24864204227924347,-0.11275504529476166
1760107205712429000,12.088428955078125,-0.026926688849925995,-0.1863080859184265,-0.2809445858001709
1760107205722494000,12.098493896484374,-0.015909723937511444,-0.10725268721580505,-0.45953482389450073
1760107205732558800,12.108558837890625,0.01775209978222847,-0.02642521634697914,-0.6071991324424744
1760107205742624000,12.1186240234375,0.05085758864879608,0.05354764685034752,-0.6942416429519653
1760107205752690000,12.12868994140625,0.08018671721220016,0.11089402437210083,-0.6977974772453308
1760107205762754800,12.1387548828125,0.09793668240308762,0.15343908965587616,-0.6225796937942505
1760107205772820000,12.148820068359376,0.11034674942493439,0.17831487953662872,-0.4885028302669525
1760107205782884900,12.158884765625,0.11861106753349304,0.18749240040779114,-0.32207179069519043
1760107205792950000,12.168949951171875,0.13221129775047302,0.15221403539180756,-0.1543986201286316
1760107205803015000,12.179014892578126,0.1390572190284729,0.10317911207675934,-0.00475454144179821
1760107205813081000,12.1890810546875,0.14310389757156372,0.05878821387887001,0.1033833771944046
1760107205823146000,12.19914599609375,0.1420881599187851,0.014120878651738167,0.15343376994132996
1760107205833211000,12.2092109375,0.13772670924663544,-0.034870631992816925,0.1430429071187973
1760107205843276000,12.219276123046875,0.13416312634944916,-0.0663159042596817,0.08787286281585693
1760107205853341000,12.2293408203125,0.14484187960624695,-0.07715417444705963,0.00848296657204628
1760107205863405800,12.23940576171875,0.17163434624671936,-0.07305556535720825,-0.07610515505075455
1760107205873471000,12.249470947265625,0.20390546321868896,-0.06983128190040588,-0.14202319085597992
1760107205883537200,12.259537109375,0.23692892491817474,-0.068525530397892,-0.17572149634361267
1760107205893601800,12.269601806640624,0.25810450315475464,-0.08726006746292114,-0.18559995293617249
1760107205903667000,12.2796669921875,0.2599330544471741,-0.13159477710723877,-0.1713496446609497
1760107205913732000,12.289732177734376,0.2368980348110199,-0.1691509485244751,-0.1479700207710266
1760107205923797000,12.299796875,0.20156347751617432,-0.18285930156707764,-0.12455470860004425
