time,seconds_elapsed,z,y,x
1760107122540706800,0.078706787109375,-0.3614379414439201,-0.0758341164022684,-0.38546069513149556
1760107122550773000,0.08877294921875,0.0726449649721384,-0.015208090525865555,-0.00047934448216110465
1760107122560839000,0.0988388671875,0.3298492094814777,0.025507366222143172,0.3106334542168304
1760107122570905000,0.108905029296875,0.3889934723675251,0.0480778022095561,0.4247369859218597
1760107122580969700,0.1189697265625,0.2921644987314939,0.04208791414499283,0.3908626637728885
1760107122591036000,0.129035888671875,0.09487783956825732,0.026002164001762865,0.22897907069586215
1760107122601101800,0.139101806640625,-0.1673930406808853,0.007412029822170734,0.019544165235105902
1760107122611167000,0.1491669921875,-0.3513865030288696,-0.002449146717786789,-0.137578095191624
1760107122621232600,0.159232666015625,-0.3820066822201013,0.029912323182821273,-0.1375575090613216
1760107122631298800,0.169298828125,-0.2940601032197475,0.046126375880837435,-0.04219675394748337
1760107122641364000,0.179364013671875,-0.18312310925424097,0.0448407199844718,0.10011235182140953
1760107122651430000,0.189429931640625,-0.09123393010795115,0.06896130802333354,0.1938692884678021
1760107122661495800,0.199495849609375,-0.0463853190779686,0.05614303524345159,0.15420324944118036
1760107122671562000,0.20956201171875,-0.029418986707925796,0.019892448949813842,0.11821255619274451
1760107122681627000,0.219626953125,-0.09771803143024443,-0.013031331008672714,0.11704550344105809
1760107122691692800,0.22969287109375,-0.18992168335318566,-0.019864684160053728,0.08880105867153033
1760107122701759000,0.239759033203125,-0.25153555122315885,-0.0025651743128895757,0.06243044494986534
1760107122711824000,0.249823974609375,-0.2420247955560684,0.046317806799709794,0.04020261185504496
1760107122721890000,0.25989013671875,-0.14910627336204052,0.05059826059788465,0.02597632630760781
1760107122731955700,0.269955810546875,0.005965630406141281,0.02168020914942026,0.06900902875573374
1760107122742020900,0.280020751953125,0.09955167659819125,-0.0233189162671566,0.11445688432049937
1760107122752086800,0.290086669921875,0.15387597198188305,-0.057280222579836844,0.09624070715298876
1760107122762153000,0.300153076171875,0.12937164532244205,-0.07520517084896564,0.04904023576723411
1760107122772219000,0.310218994140625,0.00066401686668396,-0.04872837507277727,-0.010206217984808608
1760107122782283800,0.32028369140625,-0.11706804406642914,0.0036760581642389296,0.002423318156786263
1760107122792349700,0.330349609375,-0.1551718570113182,0.028994331555068493,0.005857630853867158
1760107122802415900,0.340415771484375,-0.10876958679854869,0.029442952105402945,0.027358747976180164
1760107122812481000,0.35048095703125,-0.0050374096453189845,0.01467412977963686,0.08576626668605021
1760107122822547000,0.360546875,0.06497720682322979,0.012246610371768473,0.11196371579789556
1760107122832612900,0.37061279296875,-0.004669160854816437,0.009299451003968714,0.10183086444339715
1760107122842677800,0.380677734375,-0.16345687027573585,0.00014554595053195953,0.12738791502616367
1760107122852744000,0.390743896484375,-0.27378186982274055,0.029290976414084433,0.08617054577115922
1760107122862809900,0.400809814453125,-0.32349662558436393,0.037650808480381964,0.02544258475708775
1760107122872875000,0.410875,-0.2887941455155611,0.026158523607254028,-0.0038791429882869123
1760107122882940700,0.420940673828125,-0.19254443307220934,-0.012034428925812244,-0.009431808679364622
1760107122893006800,0.4310068359375,-0.10044482604563236,-0.01900806733071804,-0.030219489435851572
1760107122903072800,0.44107275390625,-0.020263035827875135,-0.004557809434831142,-0.012965106505202129
1760107122913138000,0.451137939453125,0.01987199068367481,-0.020175649805366992,0.06825922416858375
1760107122923203800,0.461203857421875,-0.0670329703092575,-0.043992870983481404,0.11444892020975239
1760107122933269800,0.471269775390625,-0.1508849734723568,0.0007692308068275451,0.12157910088323988
1760107122943335000,0.4813349609375,-0.16338848121464253,0.06858370688259602,0.09663233681907876
1760107122953400800,0.49140087890625,-0.1126075575262308,0.05738046808391809,0.06128408792633563
1760107122963467000,0.501467041015625,-0.006387070688605308,0.01624474009722471,0.04026685446398332
1760107122973532000,0.511531982421875,0.07959200763106346,-0.036326574139297005,0.008805493474565445
1760107122983597800,0.521597900390625,0.0786620333045721,-0.06387392175644636,-0.039196119959931816
1760107122993663700,0.531663818359375,0.011439677903056144,-0.04992489138096571,-0.06322790633733384
1760107123003729000,0.54172900390625,-0.06315291400551795,-0.03755202428102493,-0.07061687494432553
1760107123013794800,0.551794921875,-0.14019348358809947,-0.007714812161028385,-0.03044622913012281
1760107123023861000,0.561861083984375,-0.17272037318348885,-0.008403963468968868,0.02233353109215386
1760107123033927000,0.571927001953125,-0.1887742668837309,0.007692600329220294,0.09840919203218072
1760107123043991800,0.58199169921875,-0.1868558660417795,0.015593582712113856,0.1074810722248163
1760107123054057700,0.5920576171875,-0.1542348684221506,0.02977992897480726,0.08094953232039696
1760107123064124000,0.6021240234375,-0.09501812482178211,0.042750177446007724,0.057314490175619716
1760107123074189000,0.61218896484375,-0.00834112736582756,0.033194705854356285,0.06723640219317749
1760107123084254700,0.622254638671875,0.07588321624100208,0.018323884458839892,0.12301115211350842
1760107123094321000,0.63232080078125,0.19648703321814537,0.0689347122773528,0.22276264386642722
1760107123104385800,0.6423857421875,0.21641163087189197,0.06994008992761373,0.16177512773387134
1760107123114452000,0.652451904296875,0.036702129453420634,0.0017608721926808356,0.01843866081177257
1760107123124518000,0.662517822265625,-0.1341612176865339,-0.017725918565690515,-0.0635083033144474
1760107123134582800,0.672582763671875,-0.21875790173709392,0.008165186277031899,-0.0730279272745829
1760107123144648700,0.682648681640625,-0.23139526499211788,0.02829553563594818,0.01044163417587988
1760107123154715000,0.69271484375,-0.2120703867971897,0.032116262967884536,0.1087878531076014
1760107123164780500,0.702780517578125,-0.14758885453641413,0.02904021652340889,0.14392670616651884
1760107123174845700,0.712845703125,-0.059379240685701364,0.02055032833665609,0.08282896199198439
1760107123184911600,0.72291162109375,0.02242401325404644,0.01137275014668703,0.005378496434260159
1760107123194977800,0.732977783203125,0.002824409770965576,-0.042783495193719864,-0.02129320085952058
1760107123205043000,0.74304296875,-0.0917547391116619,-0.06002718320041894,0.009351235990133136
1760107123215108600,0.753108642578125,-0.20342823065817356,0.003907528832554817,0.07615867218151688
1760107123225174800,0.7631748046875,-0.41477790196537967,0.02266834340393543,0.13168053418616762
1760107123235239700,0.77323974609375,-0.4789560673654079,0.03801321205198765,0.07362450492824428
1760107123245305900,0.783305908203125,-0.36036475925445555,0.08250234211981296,0.03395854810001328
1760107123255371800,0.793371826171875,-0.18745850811004638,0.03871434605866671,-0.003578214679798111
1760107123265436700,0.803436767578125,0.042836102163791655,-0.034432138694822784,-0.0019665051668416706
1760107123275502600,0.813502685546875,0.23229835131168364,-0.09067775752991437,-0.020431241134786976
1760107123285568800,0.82356884765625,0.29232524225115775,-0.11536679310649632,-0.027170020471047607
1760107123295634000,0.833634033203125,0.1785737753868103,-0.1284364102989435,-0.0041932413056027145
1760107123305699800,0.843699951171875,-0.029803017589449882,-0.08755787194371223,0.035001992738340044
1760107123315765500,0.853765625,-0.2699661109268665,0.011754150679707526,0.04485024586464278
1760107123325831700,0.863831787109375,-0.37458851491808887,0.09954758494496345,0.04166163329062983
1760107123335896800,0.873896728515625,-0.3473603162527084,0.1397284964248538,0.04946672668415122
1760107123345962800,0.883962646484375,-0.23212650187611578,0.1330275374814868,0.0814549154261127
1760107123356028700,0.894028564453125,-0.08918342731893063,0.09675590839982032,0.10736120870481244
1760107123366093600,0.904093505859375,-0.022116554740071296,0.048535190588235855,0.10742619109926745
1760107123376159700,0.91415966796875,-0.017504677030444143,0.01493687236905098,0.07655161702185868
1760107123386225700,0.9242255859375,-0.062243982467055314,-0.017383388738334178,0.04429068488627672
1760107123396290800,0.934290771484375,-0.10278992786705493,0.006066460432112217,0.03175507410583086
1760107123406356700,0.944356689453125,-0.13026947094500063,0.017599077315628528,-0.009533004031516612
1760107123416423000,0.9544228515625,-0.15037117873132227,0.025715163753926754,-0.04975363560044206
1760107123426487800,0.96448779296875,-0.14250234505236148,-0.023708207845687865,-0.07572448201533406
1760107123436553700,0.9745537109375,-0.11086685133874416,-0.04811433482766151,-0.07306201220727525
1760107123446619600,0.98461962890625,-0.06474398258924484,-0.04632365201860666,-0.04355044271191582
1760107123456685800,0.994685791015625,0.022211831808090207,-0.038970366646349425,-0.007326543495804071
1760107123466750700,1.004750732421875,0.02946808654665947,-0.07085603572875261,0.06126285334206186
1760107123476816600,1.014816650390625,-0.040053193446993825,-0.06177694947719574,0.11197062046271748
1760107123486882600,1.024882568359375,-0.16185703386366365,-0.005699380685389042,0.1274422938282136
1760107123496947700,1.03494775390625,-0.2270323936074972,0.0736886288061738,0.1206996511675883
1760107123507014000,1.045013916015625,-0.24779636469483374,0.098116090837121,0.11163943401328287
1760107123517079800,1.055079833984375,-0.18823884483277797,0.06142214469015598,0.07305203880253247
1760107123527144700,1.065144775390625,-0.10670096383094788,-0.011984452304244041,-0.013363357708323746
1760107123537210600,1.075210693359375,-0.036600422644615174,-0.06101882458627224,-0.07735018352102488
1760107123547276800,1.08527685546875,-0.04336334090828895,-0.08040829245001077,-0.09302688707248308
1760107123557341700,1.095341796875,-0.08712824835479259,-0.0886310541331768,-0.021251334479171782
1760107123567407900,1.105407958984375,-0.14903028551638126,-0.04072364005446434,0.07216782158021814
1760107123577473500,1.1154736328125,-0.1858458122164011,0.03344692704975605,0.11670238909181206
1760107123587538700,1.12553857421875,-0.15665186643600462,0.0884393309533596,0.12915868755835108
1760107123597604900,1.13560498046875,-0.0619657500475645,0.06269669467061757,0.10588287978055887
1760107123607670800,1.1456708984375,0.041088966235518457,-0.0026285949379205704,0.10684787975465879
1760107123617736700,1.15573681640625,0.05359305849969387,-0.03585281914770603,0.07529100423520431
1760107123627801600,1.165801513671875,-0.002436287236213684,-0.02816051107943058,0.07689669499932787
1760107123637867800,1.17586767578125,-0.11452888097763061,0.03439297572821379,0.12184075662726536
1760107123647933700,1.18593359375,-0.2104582754254341,0.08591156604140997,0.13806667329301126
1760107123657998800,1.195998779296875,-0.25413141293525693,0.07745879499465226,0.14810407404955475
1760107123668064800,1.206064697265625,-0.22691607375144957,0.06004179624766111,0.12290819406253285
1760107123678130700,1.216130615234375,-0.12678630500435828,0.032194004379212854,0.05395922493096441
1760107123688195600,1.226195556640625,0.0020458266139030457,-0.02421118893176317,0.04678898624172434
1760107123698261800,1.23626171875,0.03265080823600292,-0.029898294657468794,0.09996569162602535
1760107123708327700,1.24632763671875,0.00029576807618141173,0.03317190950065851,0.11955049026561901
1760107123718392800,1.256392822265625,-0.06458733072280884,0.09652472999244928,0.09213717169114388
1760107123728458800,1.266458740234375,-0.12250292859673499,0.09234013778418303,0.024632784477854146
1760107123738524700,1.276524658203125,-0.14131108944118023,0.03675239833593368,-0.030057659070799124
1760107123748589800,1.28658984375,-0.10373626880645752,-0.033710254161059855,-0.09220201708828099
1760107123758655700,1.29665576171875,-0.01156710367500782,-0.08141103975176811,-0.11512134871175513
1760107123768722000,1.306721923828125,0.024511340922117233,-0.11080080036520958,-0.10687336125578731
1760107123778786600,1.31678662109375,0.020958032354712487,-0.11309884817451238,-0.029223783796234054
1760107123788852700,1.326852783203125,-0.01757598870098591,-0.06880494841784239,0.04097845506574958
1760107123798918700,1.336918701171875,-0.049364627149701114,-0.022494740402698516,0.08394839447597041
1760107123808984800,1.34698486328125,-0.0792325266689062,0.0048459787264466285,0.08681937420186586
1760107123819049700,1.3570498046875,-0.07491992416679859,0.008506547060608863,0.053848923823749645
1760107123829115600,1.36711572265625,-0.029804186633229254,0.008650631706416606,0.02804173440481536
1760107123839181600,1.377181640625,0.011263736814260482,0.002351531562209129,0.055951083734771236
1760107123849246700,1.387246826171875,0.022296587482094763,0.015940204192698,0.08250942944772541
1760107123859313000,1.39731298828125,-0.008484335228800773,0.04031476699262857,0.09435792561369016
1760107123869378800,1.40737890625,-0.10194412469267844,0.03796937291026115,0.04371898594554514
1760107123879443700,1.417443603515625,-0.27216975845098496,0.02498947982788086,0.027794253316614774
1760107123889509600,1.427509521484375,-0.40441842051446436,0.00656739569157362,0.003681327994400635
1760107123899575800,1.437575927734375,-0.4482686681568622,0.005700841990113258,-0.004548785878159106
1760107123909640700,1.447640625,-0.41269700403809545,0.011878361581265926,-0.019437983180582524
1760107123919707000,1.457706787109375,-0.3519663487434387,0.04768734158724546,-0.02925642569051124
1760107123929772500,1.4677724609375,-0.1986684689104557,0.06600625761002302,-0.011322718726191668
1760107123939837700,1.477837646484375,0.032628011882305144,0.0960199953407049,-0.0021191293121315537
1760107123949903600,1.487903564453125,0.2339998945325613,0.06752396869659423,-0.01289378570150584
1760107123959969800,1.4979697265625,0.3342787163615227,-0.02103226663470268,0.035989268476329744
1760107123970035700,1.50803564453125,0.30255086818933485,-0.06224105985760688,0.11334264860143885
1760107123980100600,1.5181005859375,0.22858605279028416,-0.044646950978040695,0.1610576819132082
1760107123990166800,1.528166748046875,0.09929448696672916,0.03436696450412273,0.2127221104378812
1760107124000232700,1.538232666015625,-0.07685644518733024,0.08014847247004508,0.2425706476694904
1760107124010297900,1.5482978515625,-0.20746084717512128,0.07182429623901844,0.25107924055671316
1760107124020363800,1.55836376953125,-0.28405951820909975,0.057038230517506595,0.24083171331398187
1760107124030430000,1.568429931640625,-0.24747429313361644,0.02847059994190931,0.177236608498916
1760107124040494600,1.57849462890625,-0.13720891481935976,0.0067614569589495655,0.10501423458671197
1760107124050560800,1.588560791015625,0.022351532539725303,-0.022293957133591173,0.019789792292937636
1760107124060626700,1.598626708984375,0.11943886485099792,-0.07077624849081039,-0.0047659357601776715
1760107124070691800,1.60869189453125,0.08984276801049709,-0.0723944973424077,-0.012314615840371697
1760107124080757500,1.618757568359375,-0.016380056914687156,-0.027420798628032206,-0.018188019652105866
1760107124090823700,1.62882373046875,-0.15042612378895281,0.04459522079080343,0.0017996698331087828
1760107124100888800,1.638888916015625,-0.20844635108113288,0.10317980396747589,0.030833109555859117
1760107124110954800,1.648954833984375,-0.13963935683667658,0.13744973783791065,0.05550765994936228
1760107124121020700,1.659020751953125,0.0021603929042816163,0.09282792130112648,0.02766525664208457
1760107124131085600,1.66908544921875,0.10367547852993012,0.0195195239841938,0.009041603785380721
1760107124141151700,1.67915185546875,0.10999006850421428,-0.04295476010739803,-0.030457956100534644
1760107124151217700,1.6892177734375,0.03348667453825473,-0.0698784228682518,0.028884258776716885
1760107124161283300,1.699283447265625,-0.06168576406240463,-0.06246084008812904,0.12447516025146468
1760107124171348200,1.70934814453125,-0.12040800214409828,-0.011406944677233695,0.21520503156110643
1760107124181414100,1.7194140625,-0.1901981622070074,0.03413140218257904,0.3095330552268773
1760107124191480000,1.72947998046875,-0.24549627105891703,0.07673106524199247,0.30449370935279874
1760107124201545200,1.739545166015625,-0.28190321695804593,0.08385287994593381,0.23110760715715586
1760107124211611400,1.749611328125,-0.30089550219774247,0.08264350415617228,0.1484854928488843
1760107124221677300,1.75967724609375,-0.33317163190245624,0.02628478033542633,0.10184230828601866
1760107124231742200,1.7697421875,-0.38161037637889383,-0.029881343522667882,0.08566349129816517
1760107124241808100,1.77980810546875,-0.39196225904524323,-0.03204319773167372,0.06157726218663156
1760107124251874300,1.789874267578125,-0.36442601734399793,-0.033789456877112385,0.03466527159726247
1760107124261939200,1.799939208984375,-0.24685528445243834,-0.04705518116354942,0.045138442555721844
1760107124272005400,1.81000537109375,-0.07599427540004253,-0.0449906498491764,0.04097748695136979
1760107124282071000,1.820071044921875,0.05168927070498466,-0.06708440823554992,0.01182606513844803
1760107124292136200,1.83013623046875,0.09521277061104774,-0.094384210832417,0.026739209572039544
1760107124302202000,1.8402021484375,0.056226914134621615,-0.09257716141045093,0.03652951283287257
1760107124312268300,1.850268310546875,-0.038437574943900106,-0.05066021991819143,0.019121519376244393
1760107124322333400,1.86033349609375,-0.1244458793580532,-0.012663959001004695,-0.02248471219902858
1760107124332399000,1.870399169921875,-0.21784838567674158,-0.03261398335695267,-0.03524193897405639
1760107124342465300,1.88046533203125,-0.2533230191618204,-0.06756254714131354,-0.04150426903814077
1760107124352530200,1.8905302734375,-0.2657271581828594,-0.08121610170155763,-0.08157497987551614
1760107124362596400,1.900596435546875,-0.30673019970059395,-0.051530280750989914,-0.062202444880269464
1760107124372662300,1.910662353515625,-0.27727847976684566,0.027649638947844505,-0.05108436361439526
1760107124382728400,1.920728515625,-0.12951952936053276,0.05071516497582197,-0.03020111352894455
1760107124392793000,1.93079296875,0.006121113228797912,0.020620470963418482,-0.024416319582425055
1760107124402859300,1.940859375,0.10080664509534835,-0.043429099620878694,-0.04161141920704394
1760107124412925200,1.95092529296875,0.09900807124078273,-0.10944909349530935,-0.054366435758676376
1760107124422990300,1.960990234375,0.008670797711610794,-0.0928752675741911,-0.03629800563193857
1760107124433056000,1.971055908203125,-0.08545242409706115,-0.0036211131066083905,-0.032674353508371855
1760107124443122200,1.9811220703125,-0.1676549064874649,0.06374328111410141,0.020217004729062318
1760107124453187300,1.991187255859375,-0.26943478052914144,0.0935632498383522,0.12388899439396336
1760107124463253200,2.001253173828125,-0.3144359517723322,0.12489245408177375,0.15609516413500532
1760107124473319200,2.011319091796875,-0.2897556840240955,0.12869739932268856,0.09129435505829751
1760107124483384000,2.021384033203125,-0.18417583317756653,0.10772153905034064,0.03569231309005991
1760107124493450200,2.0314501953125,-0.01673719978928566,0.05132745165526867,0.031170908409170806
1760107124503516200,2.04151611328125,0.18839023600220678,0.00902910962998867,0.005119297508802264
1760107124513581300,2.051581298828125,0.2729600320458412,-0.027207740399241447,0.0076036982030607755
1760107124523647200,2.061647216796875,0.18393793276846407,-0.05536971278339624,0.0030786585266701877
1760107124533713400,2.07171337890625,0.01004383963048458,-0.04606383203864097,-0.039136133401002735
1760107124543778300,2.0817783203125,-0.189687874597311,-0.04427928670942783,-0.09075714290905744
1760107124553844200,2.09184423828125,-0.30875615257024763,-0.03570201250016689,-0.08708903058925643
1760107124563910100,2.10191015625,-0.2604150232493877,-0.027994799123704433,-0.05231326608853414
1760107124573975300,2.111975341796875,-0.11026713187992572,-0.04330722680687904,-0.003876055982057005
1760107124584041200,2.122041259765625,0.020004677152633665,-0.07688420997709035,0.03369187825415283
1760107124594107100,2.132107177734375,0.11886544887721538,-0.08715104470849036,0.015180681929131969
1760107124604172300,2.14217236328125,0.1309679746031761,-0.09768763629198074,-0.05327206465071067
1760107124614238200,2.15223828125,0.022566052073240278,-0.08878010721504688,-0.09374548367061651
1760107124624304400,2.162304443359375,-0.08351181142330169,-0.07897182990610599,-0.08143182681147008
1760107124634369000,2.172369140625,-0.15225976895689963,-0.054171735170483584,-0.023376674336381256
1760107124644435200,2.182435302734375,-0.17856383851468563,-0.011115852776169777,0.014017912626918405
1760107124654501000,2.192501220703125,-0.15467676697075367,-0.0270899592384696,0.04380125740151852
1760107124664567300,2.2025673828125,-0.11955927636027336,-0.028289105895161627,0.0934782019034028
1760107124674632200,2.212632080078125,-0.08652268367707729,-0.0027025369569659233,0.1114953037017025
1760107124684698400,2.222698486328125,-0.06247896026670932,0.02729600320458412,0.09823899569758214
1760107124694764000,2.232763916015625,-0.10308628046512604,0.03543108660429716,0.08206175874546169
1760107124704829200,2.2428291015625,-0.20590251181721686,0.0439516621902585,0.0994853607631754
1760107124714895400,2.252895263671875,-0.2667681916683912,0.07513210561275482,0.09591637056944892
1760107124724961300,2.262961181640625,-0.24171850608587264,0.10589753849357365,0.10887470940714701
1760107124735026200,2.273026123046875,-0.1918973673403263,0.1073904073998332,0.1774265598467551
1760107124745092000,2.283092041015625,-0.14989362434744835,0.07987082457244396,0.23282484113750979
1760107124755158300,2.293158203125,-0.09867781637310981,0.0652709290727973,0.19616446846658364
1760107124765223200,2.30322314453125,-0.032790508967638014,0.04885112466961145,0.12610396702969445
1760107124775289300,2.313289306640625,0.017843115204572678,0.02148936275243759,0.05543159903846681
1760107124785355300,2.323355224609375,0.057394788870215416,-0.0159293905377388,0.012450197519315406
1760107124795420200,2.333420166015625,0.09513093754649161,-0.021588146951794625,-0.0019427406987641005
1760107124805486000,2.343486083984375,0.03728139064610004,0.0005184709161520004,0.030102466326905414
1760107124815552300,2.35355224609375,-0.060519058370590205,0.010607610993087291,0.027690034890314564
1760107124825617400,2.363617431640625,-0.09812368962168692,0.0031648937717080115,-0.0637665341255255
1760107124835683300,2.373683349609375,-0.07038695691227913,-0.038594811332225795,-0.08919075210886075
1760107124845749200,2.383749267578125,-0.05569441469311714,-0.08402005320638417,-0.059042181617906316
1760107124855814100,2.393814208984375,-0.06313654739260673,-0.07603665323704481,-0.030108165415329857
1760107124865880300,2.40388037109375,-0.08422726621627807,-0.03309942878633737,-0.003945769350556657
1760107124875946200,2.4139462890625,-0.05683247881233692,-0.009675006318092346,0.031640051157725974
1760107124886011100,2.42401123046875,-0.028999884513020515,0.014220248532295227,0.08467975009097717
1760107124896077000,2.4340771484375,-0.07164017184376716,0.025139117431640625,0.11965051657399162
1760107124906143200,2.444143310546875,-0.17272095770537851,0.05021013806313276,0.1356900072895456
1760107124916208400,2.45420849609375,-0.2470224577128887,0.07649053448438643,0.13925833076299168
1760107124926274300,2.4642744140625,-0.29347090515494345,0.09088117114752531,0.14752668515355324
1760107124936340200,2.47434033203125,-0.2982651536941528,0.09567863455712795,0.11743562613665126
1760107124946406100,2.48440625,-0.19536475118994712,0.0785424985781312,0.10260128256031312
1760107124956471300,2.49447119140625,-0.04652794241905212,0.03150222272276878,0.09974993911664932
1760107124966537200,2.504537109375,0.08617723124027252,-0.02915039889961481,0.0646986730096396
1760107124976603400,2.514603271484375,0.1898410193324089,-0.053684536175429814,0.05288489196402952
1760107124986668300,2.524668212890625,0.2513409054338932,-0.04966770174950361,0.06656015603258274
1760107124996734200,2.534734130859375,0.23065876741111277,-0.018160802851617336,0.09292670550048351
1760107125006800100,2.544800048828125,0.10147884526848792,-0.0037991000220179557,0.1083268479997292
1760107125016865300,2.554865234375,-0.06943418623209,0.024045476976037025,0.06756243754345924
1760107125026931200,2.56493115234375,-0.21868249841332435,0.042379006046056746,0.020446694432245567
1760107125036997400,2.574997314453125,-0.3175841866701841,0.03744271868765354,0.016493499827058986
1760107125047062300,2.585062255859375,-0.34712767654061316,0.03661649699658155,0.01610833643437363
1760107125057128200,2.595128173828125,-0.33084698834717274,0.04050999730378389,0.04235364327593706
1760107125067194000,2.605194091796875,-0.21630817049741743,0.05384294160753488,0.059996851994236926
1760107125077259300,2.61525927734375,-0.05705518165230751,0.03581307165920734,0.03280337758236564
1760107125087325400,2.625325439453125,0.06825988175570964,-0.024476854130625725,0.022104809503350406
1760107125097391000,2.63539111328125,0.11178104357421398,-0.06714519851207733,0.030413331507518886
1760107125107456300,2.645456298828125,0.04284077833890915,-0.059852118894457816,-0.013975160330580546
1760107125117522200,2.655522216796875,-0.0759866766154766,-0.06006926877647638,-0.10278740711640566
1760107125127588400,2.66558837890625,-0.19013094218969345,-0.06518880374729633,-0.1296219576885458
1760107125137653200,2.6756533203125,-0.24783494313955307,-0.022283435739576814,-0.09435622684694826
1760107125147719200,2.68571923828125,-0.2521440385103226,0.04630757766664028,-0.038022701399540525
1760107125157785300,2.695785400390625,-0.25698095714747904,0.06831482681334018,0.005464074092172086
1760107125167850200,2.705850341796875,-0.24509411999881267,0.0651049248561263,0.029473283311584962
1760107125177916400,2.71591650390625,-0.24285247855186462,0.05036182149350643,0.01851621042685583
1760107125187982300,2.725982421875,-0.17807985439002513,0.027382804705202577,-0.014983716318616643
1760107125198047500,2.736047607421875,-0.1141676464498043,-0.007882277682423592,-0.03900937434933148
1760107125208113400,2.746113525390625,-0.05003507375717163,-0.04470686447173357,-0.04035298011116683
1760107125218179600,2.7561796875,0.04119651826322079,-0.0600990793928504,-0.040199689245596526
1760107125228244200,2.766244140625,0.06416764400601387,-0.0444660414531827,-0.016133023351058363
1760107125238310400,2.776310302734375,-0.0022919103294610976,-0.021150632317364214,0.034190265363501386
1760107125248376300,2.786376220703125,-0.1170388179719448,0.01681026502549648,0.07388656253106891
1760107125258441500,2.79644140625,-0.17947218553125857,0.06398614995926619,0.10154780971831641
1760107125268507100,2.806507080078125,-0.19356676185727117,0.07977496298253536,0.10900307589401491
1760107125278573300,2.8165732421875,-0.14533669169545171,0.0619549363926053,0.11054356506797484
1760107125288638500,2.826638427734375,-0.08297580485045909,0.043858723209798334,0.0808965508909896
1760107125298704400,2.836704345703125,-0.04261223028004169,0.007332827106118202,0.06457328393114731
1760107125308770300,2.846770263671875,-0.05701601868569851,-0.02539367671459913,0.08126103682182728
1760107125318835200,2.856835205078125,-0.13772387860417365,-0.012143149997293948,0.0907599741869606
1760107125328901400,2.8669013671875,-0.1837181525379419,0.03830371943116188,0.09116114799953065
1760107125338967300,2.87696728515625,-0.16804419806599616,0.04795329904705286,0.07430450481534935
1760107125349032400,2.887032470703125,-0.11514847418069839,0.021640753921866415,0.04266461805440485
1760107125359098400,2.897098388671875,-0.07223053895235061,-0.04255144000351429,0.041787652556784446
1760107125369164500,2.90716455078125,-0.031982115194201466,-0.06522182923406362,0.01648436667253263
1760107125379230200,2.917230224609375,-0.007475450447201729,-0.0456029365286231,0.02072124619046226
1760107125389295400,2.92729541015625,0.009618892216682433,-0.026577041280269623,0.03073648991412483
1760107125399361300,2.937361328125,-0.011333879441022873,0.0016238018095493317,0.039677190608298406
1760107125409426400,2.947426513671875,-0.055958618587255475,0.028901392574608324,0.07734538861489855
1760107125419492400,2.957492431640625,-0.11657061593830585,0.06717647043317555,0.07938494988479651
1760107125429558300,2.967558349609375,-0.14000994371473788,0.04220744887143373,0.07633309716666117
1760107125439624200,2.977624267578125,-0.1381535021930933,0.005018704944849014,0.05386252309083938
1760107125449689300,2.987689453125,-0.12638415394425392,-0.0047989247143268585,0.009582706658449023
1760107125459755500,2.997755615234375,-0.05052022692561149,0.005108136793971062,0.008467575890244916
1760107125469821400,3.007821533203125,0.028612346500158307,0.02546001994907856,0.04228558300840668
1760107125479886300,3.01788623046875,0.06484919652938842,0.040645606382191175,0.06433320069811306
1760107125489952300,3.0279521484375,0.00770458302795887,0.04330722680687904,0.07551994501971639
1760107125500018400,3.038018310546875,-0.09129355134069919,0.0457750782251358,0.07104254387733526
1760107125510083300,3.048083251953125,-0.18211363995075225,0.03063099284619093,0.0435606261792127
1760107125520149500,3.0581494140625,-0.21069208418130875,0.038299627777934074,-0.0009861340936738996
1760107125530215200,3.068215087890625,-0.13608137209415436,0.05379296498596668,-0.0012178787566255777
1760107125540280300,3.0782802734375,-0.05105506445467472,0.02019669259339571,0.023541774370754137
1760107125550346500,3.088346435546875,0.007597615522146224,-0.0314098682641983,0.04765967726218514
1760107125560412400,3.098412353515625,0.00392915614247322,-0.05188508553802967,0.04614134512110613
1760107125570477300,3.108477294921875,0.014533552265167235,-0.05435761313140392,0.036299366471963
1760107125580543200,3.118543212890625,-0.016144494593143464,-0.05565086781233549,0.04961850144607015
1760107125590609400,3.128609375,-0.05408113427758217,-0.06238806711286306,0.041614588411664585
1760107125600674300,3.13867431640625,-0.11780921782255172,-0.035625440132617946,0.057704220145568245
1760107125610740500,3.148740478515625,-0.21026596772372722,0.011819909392297268,0.019703118656482548
1760107125620806400,3.158806396484375,-0.27290216437876225,0.025641806256771087,0.016033755094511434
1760107125630871300,3.168871337890625,-0.2600859374254942,0.04304565326124429,0.06776144898058846
1760107125640937200,3.178937255859375,-0.22341478763222694,0.054447337241470814,0.09246284171524458
1760107125651003400,3.18900341796875,-0.17314999677240847,0.08425006256997584,0.13910050071962177
1760107125661068500,3.199068603515625,-0.17912614857256412,0.09021803106367587,0.17517719175107777
1760107125671134500,3.209134521484375,-0.22723346913754938,0.07350947284698486,0.17671419206000863
1760107125681200400,3.219200439453125,-0.25114275251328944,0.0391457232132554,0.13446208206294102
1760107125691265300,3.229265380859375,-0.21282558907866478,0.003998421986401081,0.06809221530491485
1760107125701331500,3.23933154296875,-0.0993102690577507,-0.029453473499417303,0.021100673962105063
1760107125711397400,3.2493974609375,0.0048860184758901595,-0.06956804174482822,0.005298124674428254
1760107125721462300,3.259462158203125,0.05283727169632911,-0.07849632134884596,0.03399261476639658
1760107125731528200,3.269528076171875,0.010932897424697875,-0.053289983899891376,0.044567209405871104
1760107125741594400,3.279594482421875,-0.10157353781461716,-0.02925532057881355,0.01899301589205861
1760107125751659500,3.289659423828125,-0.2060270149797201,-0.012248071676492691,0.0005998290566727519
1760107125761725400,3.299725341796875,-0.2462906363070011,-0.014231938970088958,-0.049380527971731494
1760107125771791400,3.309791259765625,-0.23296996696293354,-0.03377688965648413,-0.0192820528333541
1760107125781856300,3.319856201171875,-0.15684008248448372,-0.040294893248379225,0.04844423350230791
1760107125791922400,3.32992236328125,-0.04573357717096805,0.0007242226213216781,0.06940279557998291
1760107125801988400,3.33998828125,0.04449263719916344,0.021838614581525324,0.05731879189140163
1760107125812053500,3.350053466796875,0.026535540226101873,0.017620120103657246,0.02861429186207242
1760107125822119400,3.360119384765625,0.14226795177459717,0.03396627474874258,-0.0364578175698407
1760107125832185300,3.370185302734375,0.134632926851511,-0.009868775324523448,0.01332480666306801
1760107125842250200,3.380250244140625,0.08136603156626224,-0.03063303867280483,0.011095887700375168
1760107125852316400,3.39031640625,0.015815993291139602,-0.016539923651516436,-0.001106874396512285
1760107125862382300,3.40038232421875,-0.0290483998298645,-0.016495499987900255,0.05497883203597739
1760107125872447200,3.410447265625,-0.048748541077971455,-0.003231529267132282,0.11028322449820116
1760107125882513400,3.420513427734375,-0.0739782594025135,0.015499182426929473,0.10999033336569554
1760107125892579300,3.430579345703125,-0.11868073996007442,0.030113106451928613,0.049454296460840846
1760107125902644500,3.44064453125,-0.1420709678977728,0.036083413033187385,0.0037127003801986575
1760107125912710400,3.45071044921875,-0.1484089387476444,0.02679623698890209,-0.05992584171779453
1760107125922776600,3.460776611328125,-0.1363227796345949,0.0019599018961191177,-0.08804853240433148
1760107125932841200,3.47084130859375,-0.08739829746782779,0.014132277987897394,-0.07054693324696272
1760107125942907400,3.480907470703125,-0.13462474354505538,-0.017606091578304766,0.01735903974836692
1760107125952973300,3.490973388671875,-0.19430793561339377,-0.014997954906523227,0.06485661265086383
1760107125963038500,3.50103857421875,-0.12143617614805698,0.023702362626791,0.04521469526286237
1760107125973104000,3.511104248046875,-0.009669161099195479,0.004317863199114799,-0.003972191566601395
1760107125983170300,3.52117041015625,0.11167875224351882,-0.008696808935701846,-0.023046848726971072
1760107125993235500,3.5312353515625,0.19335048875808714,-0.06486965479552745,0.057515629637753585
1760107126003301400,3.54130126953125,0.1838625294446945,-0.09579320084750652,0.15529736482081935
1760107126013367300,3.5513671875,0.09234861335158348,-0.024077625679969787,0.15322117960127069
1760107126023432200,3.56143212890625,-0.09187807323038577,0.04703969133347272,0.12941666264110244
1760107126033498400,3.571498291015625,-0.3010200053602457,0.07551964362561703,0.15152393809617495
1760107126043564300,3.581564208984375,-0.42061786016523833,0.09867197115421295,0.1375503395350184
1760107126053629400,3.59162939453125,-0.4296148210912943,0.10529928033947944,0.10662661081994883
1760107126063695400,3.6016953125,-0.3302425927132368,0.10522212345004081,0.10879890422457829
1760107126073761500,3.611761474609375,-0.16904197693169115,0.07031243037134409,0.12673125034887342
1760107126083826200,3.621826171875,-0.07102876194715499,-0.002231996835768223,0.14318986152564175
1760107126093892400,3.631892333984375,-0.08013853559792042,-0.03741261581033468,0.12089104555384256
1760107126103958300,3.641958251953125,-0.11220014576911926,-0.017699030558764935,0.03967210344122722
1760107126114023400,3.6520234375,-0.08525719378590584,-0.013624328465759753,-0.009984684188617393
1760107126124089300,3.66208935546875,-0.05368015226125717,-0.044591129137575625,0.01833142844447866
1760107126134155300,3.6721552734375,0.011610358294844627,-0.04403144942820072,0.050346907052164894
1760107126144220400,3.682220458984375,0.01829553514719009,-0.031081659223139286,0.0357118215081282
1760107126154286300,3.692286376953125,-0.12366320454776286,-0.02677490193992853,-0.016431777968769892
1760107126164352800,3.702352783203125,-0.3228355313271284,-0.013282383160293102,-0.04150847942237742
1760107126174417700,3.712417724609375,-0.4586480233520269,-0.002022445738315582,-0.04700525934090838
1760107126184483800,3.72248388671875,-0.4883271223008632,0.031123160277307032,-0.0243364501460921
1760107126194549800,3.7325498046875,-0.3532417755067348,0.07092442478984594,-0.0287164187959861
1760107126204614700,3.74261474609375,-0.10065817653536796,0.08553893333673476,-0.024363255954626947
1760107126214680600,3.7526806640625,0.1642126570791006,0.02096183174699545,-0.005782592856278643
1760107126224746800,3.762746826171875,0.2918698996990919,-0.0652297202795744,-0.022225358009943737
1760107126234812000,3.77281201171875,0.25920389389395715,-0.0897355082437396,-0.058253981249127534
1760107126244877800,3.7828779296875,0.1121679970651865,-0.06343494581729173,-0.11267294177948496
1760107126254943700,3.79294384765625,-0.0838473269879818,-0.02708206819295883,-0.1161491665226873
1760107126265008600,3.803008544921875,-0.28683132100999353,0.0002817395508289337,-0.0362107840062119
1760107126275074800,3.81307470703125,-0.3789186530768871,0.03836538649052381,0.06082936642877757
1760107126285140700,3.823140625,-0.3322597777545452,0.0831540840268135,0.09294211313216946
1760107126295206000,3.833205810546875,-0.15224690947532654,0.09054945497512817,0.07224185493080876
1760107126305271600,3.843271484375,0.02645020003020763,0.020659926190972327,0.03763465193002485
1760107126315337700,3.853337646484375,0.11294950283169745,-0.041105917370319364,0.008610117032937705
1760107126325402600,3.863402587890625,0.07097732402086257,-0.0839925806775689,-0.0219712736510206
1760107126335468800,3.87346875,-0.0637047026693821,-0.05776069957315921,0.013735661619435995
1760107126345534700,3.88353466796875,-0.20576339560747145,-0.0033612931266427037,0.09119307750775478
1760107126355599600,3.893599609375,-0.2921042929768562,0.05367635286897421,0.1715345974650234
1760107126365665800,3.903665771484375,-0.35506314571499825,0.10722177283465861,0.21296545420708132
1760107126375731700,3.913731689453125,-0.2897428245425224,0.13881751905977724,0.17014785581436007
1760107126385796900,3.923796875,-0.1592857220709324,0.1331283675074577,0.09741994353281333
1760107126395862800,3.93386279296875,-0.06102291623950004,0.05095744929909706,0.07662670981837436
1760107126405929000,3.943928955078125,-0.021322189491987227,-0.013274784375727176,0.07759539958690292
1760107126415993600,3.95399365234375,-0.024497312396764753,-0.00880085383206606,0.06427827390679158
1760107126426059800,3.964059814453125,-0.042052258309721945,-0.018139467802643774,0.03395887689357623
1760107126436125700,3.974125732421875,-0.06686112087368964,-0.03277063522338867,0.04633087634383701
1760107126446190800,3.98419091796875,-0.07115560319721698,-0.05372954436093569,0.03116769353877753
1760107126456256500,3.994256591796875,-0.042995092117786404,-0.07339344525188207,-0.0021382724040187894
1760107126466322700,4.00432275390625,0.0042968204110860825,-0.05233078347891569,-0.039561172146350146
1760107126476387800,4.014387939453125,-0.04365618637502193,-0.03382657401710749,-0.022786024100007487
1760107126486453800,4.024453857421875,-0.13130991990864277,-0.017804536759853364,0.017395407969690857
1760107126496519700,4.034519775390625,-0.17994389469623565,0.011090718334913253,0.010634937391430139
1760107126506584600,4.04458447265625,-0.1922667851746082,0.02265489940047264,0.0054998669247608625
1760107126516650800,4.054650634765625,-0.19657529602348803,0.008842062625288962,0.051785168827511364
1760107126526716700,4.064716552734375,-0.1472065772205591,0.02666559634655714,0.08492580640707165
1760107126536781800,4.07478173828125,-0.0757125358492136,0.040112522418797016,0.10598132605319842
1760107126546847700,4.08484765625,0.0133586632668972,0.04032967230081558,0.09329384917928836
1760107126556913700,4.09491357421875,0.02933773816525936,0.026994389909505843,0.03776447972161695
1760107126566978800,4.104978759765625,0.0005494505763053894,-0.017605799317359925,0.01913012280780822
1760107126577044700,4.115044677734375,-0.024783143600821494,-0.02180003613680601,0.009715055200690404
1760107126587110700,4.125110595703125,-0.0782435156315565,-0.011368950754404068,0.011913423761492594
1760107126597175800,4.13517578125,-0.1670832440793514,-0.014395605099201202,0.009251492809550836
1760107126607241700,4.14524169921875,-0.21135610104799268,-0.004357318426668644,0.004695172078907489
1760107126617306600,4.155306640625,-0.15587445232272149,0.036297348044812675,0.0127841513145715
1760107126627372800,4.165372802734375,-0.08107552418708801,0.049317573137581346,0.04397608424546197
1760107126637438700,4.175438720703125,0.004418985486030578,0.04396685975939035,0.06629795229928567
1760107126647503600,4.185503662109375,0.03267126650214195,0.02346738482713699,0.10127700255345552
1760107126657569500,4.195569580078125,-0.004462824627757072,-0.0025265958681702613,0.08733617375073954
1760107126667635700,4.2056357421875,-0.06245616391301155,-0.01931348001807928,0.07488231383645906
1760107126677700900,4.215700927734375,-0.10541267758607864,-0.028878303959965705,0.06853869869709014
1760107126687766800,4.225766845703125,-0.11329670883417128,-0.031984745542705056,0.08111068683201447
1760107126697832700,4.235832763671875,-0.04423427852392196,-0.004737549915909767,0.04431141714705154
1760107126707897600,4.245897705078125,-0.03139116356372833,-0.0029845687687397003,0.010138386046141385
1760107126717963800,4.2559638671875,-0.07850304335057735,-0.01834872663915157,0.008925192597787826
1760107126728029700,4.26602978515625,-0.13641747218072414,0.04111936137378216,0.012352481899037957
1760107126738094800,4.2760947265625,-0.11170447120666503,0.07906798375695943,0.032566253491397947
1760107126748160800,4.286160888671875,-0.08059621623754501,0.06771247700601815,0.1076732429292053
1760107126758226700,4.296226806640625,-0.0595651186466217,0.0345686245560646,0.19429306683782488
1760107126768291600,4.30629150390625,-0.09393617480397223,0.04683744675964117,0.20321950154462828
1760107126778357800,4.316357666015625,-0.09357552479803562,0.06838029326498508,0.1561925052959472
1760107126788423700,4.326423583984375,-0.04690262095034122,0.05299947652071714,0.1199177526754327
1760107126798488600,4.336488525390625,0.0036550153762102125,0.01688712965399027,0.08207872814657166
1760107126808554800,4.3465546875,0.05697217954397201,-0.04215104250907898,0.04029193410631269
1760107126818620700,4.35662060546875,0.07924187901914119,-0.05988952829539775,0.04384016463980078
1760107126828685800,4.366685791015625,0.041418052059412,-0.05964812075495719,0.05537869980745017
1760107126838751700,4.376751708984375,-0.059734045472741124,-0.053445758983492846,0.09896704511065035
1760107126848818000,4.38681787109375,-0.18919862977564333,-0.00986994436830282,0.1381413368312642
1760107126858882600,4.396882568359375,-0.24655484020113944,0.06389525680541992,0.10251520257890225
1760107126868948700,4.40694873046875,-0.2669347804069519,0.06859276697188615,0.03432089687269181
1760107126879014700,4.4170146484375,-0.22692484157979487,0.05029167886674404,-0.002707140066847205
1760107126889079800,4.427079833984375,-0.13075403959155082,0.01804769786596298,-0.0009944726637564599
1760107126899145700,4.437145751953125,-0.026457214292883873,-0.02311228777915239,0.02349626386174932
1760107126909211600,4.447211669921875,0.07253741294443607,-0.028464754723012447,0.04309659799719229
1760107126919276800,4.45727685546875,0.08816577470898627,-0.03283785524070263,0.08495163496807218
1760107126929342700,4.4673427734375,0.05290040006041526,-0.01647358041703701,0.14092493966780603
1760107126939409000,4.477408935546875,0.0009340659797191619,0.01151654253154993,0.1500893478489481
1760107126949473500,4.4874736328125,-0.02919569934606552,0.03575082007795572,0.13785446444759145
1760107126959539700,4.497539794921875,-0.1041115318596363,0.03182867819815874,0.13803197643896564
1760107126969605600,4.507605712890625,-0.14984510903060436,0.04311813397556543,0.11010176698407158
1760107126979670800,4.5176708984375,-0.13003332410156726,0.07299158645272255,0.03423831488946453
1760107126989736700,4.52773681640625,-0.07040799970030784,0.09466828847080469,0.03269846503632143
1760107126999803000,4.537802978515625,-0.0015559972703456878,0.0752042940661311,0.1010365083284676
1760107127009867800,4.54786767578125,0.045074821001291274,0.057983110152184957,0.15004958209414035
1760107127019933700,4.55793359375,0.048096799170970914,0.05415770664513111,0.13794780528685077
1760107127029999600,4.56799951171875,-0.023389058893918988,0.03006283756941557,0.04718384904451668
1760107127040064800,4.578064697265625,-0.08901683858036995,-0.03900339213311672,-0.08425848333844914
1760107127050131000,4.588130859375,-0.10067980384528637,-0.1024947443127632,-0.20308626708639785
1760107127060196600,4.598196533203125,-0.07693535564243793,-0.16059066718965767,-0.21526417786981908
1760107127070261800,4.60826171875,-0.017087328401207923,-0.15648060152232646,-0.21209376767277716
1760107127080327700,4.61832763671875,0.0031365444600582122,-0.10441168384999036,-0.12870145444329828
1760107127090392800,4.628392822265625,-0.05019347918927669,-0.05273264227807521,-0.026741364996507762
1760107127100458500,4.63845849609375,-0.16767887188494204,-0.002852174560725689,0.005457023296877741
1760107127110524700,4.648524658203125,-0.29321371552348136,0.028550679440796374,0.024861725262366234
1760107127120589800,4.65858984375,-0.3747176942557096,0.05667904181629419,0.01442218257887289
1760107127130655700,4.66865576171875,-0.4174129266440868,0.06728051532953977,0.01866358300829306
1760107127140722000,4.678721923828125,-0.40983460034430025,0.06941314344406127,0.03989025797024369
1760107127150786600,4.68878662109375,-0.3858633576482534,0.06174333946853876,0.06206084445249289
1760107127160853000,4.69885302734375,-0.32960838646292684,0.018905483739078043,0.08200297776293008
1760107127170919000,4.7089189453125,-0.2223492042273283,0.007046411380171776,0.07274166681226342
1760107127180983800,4.71898388671875,-0.08491524848043919,-0.004002513639628887,0.050681171374674885
1760107127191049700,4.7290498046875,0.028830957686901092,-0.039620647248625754,0.012035981562081724
1760107127201116000,4.739115966796875,0.08409808687865733,-0.0661687546953559,-0.013129494153521954
1760107127211180800,4.749180908203125,0.10175707768797874,-0.060532502374053,0.0018216624692082403
1760107127221247000,4.7592470703125,0.06667407386898994,-0.016019699169695378,0.027966924736090002
1760107127231312600,4.769312744140625,-0.03310965791940689,0.02651186708956957,0.05195283527830615
1760107127241377800,4.779377685546875,-0.1381657771527767,0.06477379320561885,0.06783710803268476
1760107127251444000,4.78944384765625,-0.18969781146943568,0.09842647196054458,0.06080412238966673
1760107127261510000,4.799510009765625,-0.15293021556437014,0.11077391235828399,0.05756753335492685
1760107127271575000,4.809574951171875,-0.11474866120815276,0.08088058613687753,0.06454075163472443
1760107127281640700,4.819640625,-0.059468672534823415,0.03113894236832857,0.03421500707911327
1760107127291707000,4.829706787109375,-0.0020890812337398526,0.002781155151128769,-0.006320891850907355
1760107127301771800,4.839771728515625,0.07837503305673599,-0.01729658723771572,-0.018414156558178366
1760107127311838000,4.849837890625,0.17700199602544306,-0.02320727258622646,0.0072729866776615375
1760107127321903900,4.85990380859375,0.20704174498021602,-0.05739888052344322,0.06256026360830291
1760107127331968800,4.86996875,0.10397300017178059,-0.08833353249132633,0.09164488552901894
1760107127342035000,4.880034912109375,-0.1114747541040182,-0.06146043087393045,0.06426911335280165
1760107127352100900,4.890100830078125,-0.35011516791880126,0.0017287234887480734,0.011997439649980514
1760107127362166000,4.900166015625,-0.4935124159842729,0.05111702377498149,0.035852435555215924
1760107127372232000,4.91023193359375,-0.4901508305966854,0.0984124434351921,0.10127351368842646
1760107127382297900,4.9202978515625,-0.3657224868953228,0.10014847344756125,0.15136672910731286
1760107127392362800,4.93036279296875,-0.24312895740568635,0.04130173220336437,0.16347502698693422
1760107127402429000,4.940428955078125,-0.1706657787412405,-0.023781565342843532,0.13494714389983564
1760107127412494800,4.950494873046875,-0.11866729595661163,-0.05502747521698475,0.052223560244776306
1760107127422559700,4.960559814453125,-0.083990534850955,-0.07060118418484926,-0.021128438751865177
1760107127432625700,4.970625732421875,-0.04153437191545963,-0.07978577663749456,-0.041797498097363855
1760107127442690800,4.98069091796875,-0.02412146482169628,-0.08012509159445762,-0.042874881537910546
1760107127452757000,4.990757080078125,-0.007904489514231682,-0.04528437209874391,-0.02277938429666683
1760107127462823000,5.000822998046875,-0.006761749219894409,0.003230652484297752,-0.031029125318303704
1760107127472887800,5.0108876953125,-0.015045008918642997,0.011559504890441894,-0.005562401633802801
1760107127482953700,5.02095361328125,-0.03706277945935726,0.022383973504602906,0.016554354035668073
1760107127493020000,5.03102001953125,-0.10860942780077457,0.036036943542957306,0.025218722006492316
1760107127503084800,5.041084716796875,-0.08453940090537071,0.04755582416206598,0.025481190601270645
1760107127513151000,5.05115087890625,-0.037814474609494206,0.07343640761077404,0.05208351245326921
1760107127523217000,5.061216796875,-0.05174772289395332,0.07734569000899791,0.10461151727102697
1760107127533281800,5.07128173828125,0.01227729777097702,0.08196633554697036,0.10691288954857736
1760107127543347700,5.08134765625,0.06821779617965221,0.08128653658926487,0.09606184345474467
1760107127553414000,5.091413818359375,0.07726502598822116,0.058337914939224716,0.09580441636126488
1760107127563479000,5.10147900390625,0.04914952309429645,0.023372107759118077,0.04357194215767085
1760107127573544700,5.111544677734375,-0.016160861206054686,0.0007826748102903366,0.010305997698009014
1760107127583611000,5.12161083984375,-0.08592413326203822,0.010783844342827796,0.0019617650596424935
1760107127593675800,5.13167578125,-0.15706921506524085,0.019321078802645206,0.041987997434474525
1760107127603742000,5.141741943359375,-0.20984745005071162,0.030398353134095668,0.059899465167522425
1760107127613807900,5.151807861328125,-0.2618932791084051,0.011602467249333857,0.015349343893770127
1760107127623872800,5.161872802734375,-0.3054150254487991,-0.02097001505345106,-0.04775233311485499
1760107127633938700,5.171938720703125,-0.2917722845435142,-0.037511692270636554,-0.03730345634743571
1760107127644004900,5.1820048828125,-0.2566261523604393,-0.048128655613958835,0.012262337663862853
1760107127654070000,5.192070068359375,-0.21875556364953516,-0.05763794997632503,0.029043632323201743
1760107127664136000,5.202135986328125,-0.16541326504051684,-0.04481821589171886,0.02150057826619595
1760107127674201900,5.212201904296875,-0.1223673195183277,-0.06069558398127556,0.04767464650245383
1760107127684266800,5.222266845703125,-0.10438976427912712,-0.07176847439855337,0.12415876951236277
1760107127694333000,5.2323330078125,-0.14020400498211383,-0.023656477658450602,0.14858360119480638
1760107127704397800,5.242397705078125,-0.15946224768161774,0.047986909055709834,0.09831804315000772
1760107127714464000,5.252464111328125,-0.13958908795416355,0.045858957116305825,0.04177163300374523
1760107127724529700,5.26252978515625,-0.08857786264121532,0.000008475567400455475,0.011611801333259791
1760107127734594800,5.2725947265625,-0.020514380240440368,-0.005648819541931152,-0.01708088039411232
1760107127744660700,5.28266064453125,0.08265081067979335,-0.0028325930774211884,-0.02997771656922996
1760107127754727000,5.292726806640625,0.09847148014605045,0.0064577978372573844,-0.009148845285829156
1760107127764792000,5.3027919921875,0.082679452252388,0.05759732570499181,0.047516624662838874
1760107127774857700,5.312857666015625,0.04743687395751476,0.10507950010895728,0.12447435653386636
1760107127784924000,5.322923828125,-0.015363573348522185,0.11654548149704932,0.19554916784614323
1760107127794988800,5.33298876953125,-0.052576574933528894,0.12113894676715135,0.17462295540180056
1760107127805055000,5.343054931640625,-0.03665010700523853,0.0800257228732109,0.07654869441241026
1760107127815121000,5.353120849609375,0.043111411973834037,0.024983926869928834,-0.014130634020082652
1760107127825185800,5.363185791015625,0.17761632853150366,-0.016821078680455685,-0.06594360416997223
1760107127835251700,5.373251708984375,0.21575696635544298,-0.06313830095827579,-0.06178191791325807
1760107127845318000,5.38331787109375,0.07990238875448703,-0.09276683876365423,0.01342549969172105
1760107127855383000,5.393383056640625,-0.1112567274391651,-0.059174658024311065,0.0412064003364183
1760107127865449000,5.403448974609375,-0.2665244460403919,-0.044703065079450606,-0.01462013457007706
1760107127875514600,5.4135146484375,-0.29770167459249497,-0.0006973346143960953,0.009263046250026672
1760107127885579800,5.423579833984375,-0.3825573018401861,-0.03956804027855396,0.07737955574598163
1760107127895646000,5.43364599609375,-0.4334089526772499,-0.03555938915908336,0.1175724681909196
1760107127905710800,5.4437109375,-0.4185848930329084,0.05497632955163717,0.09074132428541778
1760107127915777000,5.453777099609375,-0.3149503310352564,0.0945192353889346,0.07600808472968637
1760107127925842700,5.4638427734375,-0.12666647801697253,0.06453033983856439,0.08606434545032679
1760107127935907800,5.473907958984375,0.0019727613776922225,0.007478373056650161,0.07801825550831853
1760107127945973800,5.483973876953125,0.0534650482058525,-0.046184828069806096,0.044871955372951924
1760107127956040000,5.4940400390625,-0.0003495440900325775,-0.08802841206490992,0.045422337531019
1760107127966104800,5.504104736328125,-0.08407002982795238,-0.048073126034438605,0.025910430597700176
1760107127976170800,5.514170654296875,-0.21464286763370036,-0.008352525542676448,0.016940996999386698
1760107127986237000,5.52423681640625,-0.3377192122042179,0.01546528015732765,0.05035844222633168
1760107127996301800,5.5343017578125,-0.39266251626908777,0.03231441588848829,0.04582752079842612
1760107128006368000,5.544367919921875,-0.33054888218343254,0.07869096713811159,0.04346431706473231
1760107128016434000,5.554433837890625,-0.17976327743232248,0.08598959971368313,0.0068155982989817855
1760107128026498800,5.564498779296875,-0.05277940402925014,0.03239566443115473,0.003926964185386896
1760107128036564700,5.574564697265625,0.03993395098149776,-0.0001543137788772583,0.013962949302978813
1760107128046631000,5.584630859375,0.07721241901814938,-0.0025157822132110593,-0.025460823666676877
1760107128056696000,5.594696044921875,0.005632452929019927,-0.0006023498073220253,-0.05819629624513909
1760107128066762000,5.604761962890625,-0.1217535715341568,-0.030545068128407,-0.07454950168551877
1760107128076827600,5.61482763671875,-0.204018597766757,-0.03332213162630796,-0.04823502033157274
1760107128086892800,5.624892822265625,-0.1658335362792015,-0.021541092939674853,-0.04366385822482407
1760107128096959000,5.634958984375,-0.10287643710672854,-0.017420798139274118,-0.013353420836199075
1760107128107024000,5.64502392578125,-0.049725861677527426,-0.006008592765033244,0.010996427647583186
1760107128117089800,5.65508984375,-0.005288754057884216,0.023242051638662813,0.057650389332789924
1760107128127155700,5.66515576171875,0.07757657615542411,0.038078093981742854,0.050928442400321364
1760107128137220900,5.675220947265625,0.12021277183294296,0.022919687816500663,0.05014068955611437
1760107128147286800,5.685286865234375,0.09031506169736385,-0.012915011152625083,0.033310751715768125
1760107128157353000,5.69535302734375,0.03300093684792518,-0.019098083701729773,0.007002517439518123
1760107128167417000,5.7054169921875,-0.04512216727435588,0.010147884526848793,-0.01622784376135096
1760107128177483000,5.71548291015625,-0.13683423628807068,0.02057312469035387,-0.006569825110677629
1760107128187549000,5.725548828125,-0.15120587598979474,0.045916824783384796,0.03152123795049265
1760107128197614000,5.735614013671875,-0.10487082579433918,0.05766922189742327,0.08253394283447414
1760107128207680000,5.745679931640625,-0.033118425747752187,0.05110942499041557,0.11961655950546264
1760107128217746000,5.755745849609375,0.07748480621874332,0.028582828144729136,0.09762975035859271
1760107128227811000,5.76581103515625,0.18672960931360721,0.000562017796933651,0.06957617025235667
1760107128237877000,5.775876953125,0.23327917904257772,-0.0221381820499897,0.04807226751791313
1760107128247943000,5.78594287109375,0.19836451752781867,-0.016222820526361464,-0.0058019460107199845
1760107128258008000,5.796008056640625,0.10430208599567413,-0.014938625934720038,-0.054353137885686006
1760107128268074000,5.806073974609375,-0.03633504970669746,-0.03478109826296568,-0.0305541830166243
1760107128278139000,5.816138916015625,-0.12709376351833343,-0.024913199721276758,0.045457280980236825
1760107128288204800,5.826204833984375,-0.18962416171133517,0.016172259382903575,0.08831426153527572
1760107128298271000,5.83627099609375,-0.19008184235095976,0.06818827782422304,0.11855161542138085
1760107128308336000,5.846336181640625,-0.13591653692126274,0.06950432885885238,0.13329767792606725
1760107128318402000,5.856402099609375,-0.10740648175179958,0.04611790031343698,0.1365933767369017
1760107128328468000,5.866468017578125,-0.09416939903795718,0.033570261168479915,0.09622318976260721
1760107128338532900,5.876532958984375,-0.10969079329669475,-0.0003369768694043159,0.01901948377387598
1760107128348599000,5.88659912109375,-0.14696575420200825,-0.029872575694322584,-0.008714490722864865
1760107128358665000,5.8966650390625,-0.20419395433366297,-0.04561784183681011,-0.009950279595516622
1760107128368730000,5.906730224609375,-0.2104711349070072,-0.04051964191496372,0.011064177387859671
1760107128378796000,5.916796142578125,-0.14702128378152846,-0.02425736616104841,0.0370076882712543
1760107128388862000,5.926862060546875,-0.1229950960278511,-0.018968612103164195,0.09240405159955843
1760107128398926800,5.9369267578125,-0.13017887005209922,-0.0069265843927860254,0.10978895644154399
1760107128408993000,5.946992919921875,-0.20808511655330655,0.016757950316369532,0.08816160999052226
1760107128419059000,5.957058837890625,-0.26925942396223546,0.03391162195205688,0.06084697515070438
1760107128429123800,5.967123779296875,-0.24660335551798343,0.036598669078946114,0.008595942377112805
1760107128439190000,5.97718994140625,-0.1639724185824394,0.01909428430944681,-0.011245013847481458
1760107128449256000,5.987255859375,-0.056579380834102626,0.03109276513904333,0.01741676128497347
1760107128459321000,5.997321044921875,0.0475701449483633,0.021157062058150766,0.03692563601098955
1760107128469387000,6.007386962890625,0.007243395256996154,-0.027529811960458755,0.07641206242069602
1760107128479452000,6.017451904296875,-0.12247077989280224,-0.0358215472266078,0.10445168706681579
1760107128489517800,6.027517822265625,-0.21100889504551887,0.04836304889172315,0.04151135636605322
1760107128499584000,6.037583984375,-0.25223054774999615,0.0856789263293147,-0.022597963315155355
1760107128509649200,6.047649169921875,-0.18717092334032057,0.06279898600131273,-0.04612551736431196
1760107128519715000,6.057715087890625,-0.09485445869266987,-0.00021656536012887954,-0.007711487692780792
1760107128529781000,6.067781005859375,-0.020161913540959357,-0.022819442312419412,0.02898439468294382
1760107128539846000,6.077845947265625,0.04233808951377868,0.017930208966135976,0.027205438844300805
1760107128549912000,6.087912109375,0.03468552893400192,0.02905395278781652,0.06259982843371108
1760107128559978000,6.09797802734375,-0.01728314323425293,0.014084931714832782,0.10365313883395864
1760107128570043100,6.108043212890625,-0.07253449033498764,0.008569675424695014,0.1254754050688818
1760107128580108800,6.11810888671875,-0.0724094026505947,0.03977291520088911,0.10311842916905879
1760107128590175000,6.128175048828125,-0.06803367178440094,0.018110533969104288,0.052674372752197086
1760107128600239900,6.138239990234375,-0.06492810698449611,-0.004528875601291656,0.0618617782164365
1760107128610306000,6.14830615234375,-0.04058393932282924,-0.02725157954096794,0.07301215431671589
1760107128620371000,6.158370849609375,-0.015990765336155892,-0.024318740959465502,0.058772580029442904
1760107128630436900,6.168436767578125,-0.01891045217514038,-0.0211120538726449,0.03677643679864705
1760107128640503000,6.1785029296875,-0.011959902384877204,-0.019829612846672534,0.04864261475177482
1760107128650568000,6.18856787109375,-0.051124038037657735,-0.01716097815930843,0.10280455918060614
1760107128660634000,6.198634033203125,-0.16574702703952787,-0.0037806875824928283,0.09250480856029317
1760107128670700000,6.208699951171875,-0.26363047816455365,0.0029901217266917225,0.0501567456417717
1760107128680765000,6.218764892578125,-0.32692718455493447,0.008696808935701846,0.035584961991757154
1760107128690830800,6.228830810546875,-0.3002273936778307,0.02321779398024082,0.05357479219064116
1760107128700897000,6.23889697265625,-0.22176526685953138,0.04918868606090546,0.08255701318280771
1760107128710962200,6.248962158203125,-0.1389461138755083,0.059034372770786284,0.13449854161581024
1760107128721028000,6.259028076171875,-0.04410100753307342,0.06362929934561252,0.11279031194830312
1760107128731093800,6.26909375,0.02477496029436588,0.06185556767135858,0.06738055990422144
1760107128741159000,6.279158935546875,0.0034422494083642956,0.019134616319835186,0.008916881427168845
1760107128751225000,6.28922509765625,-0.05165595295727252,-0.021257892084121703,-0.048633024939522145
1760107128761291000,6.299291015625,-0.09436346030533313,-0.03057634004950523,-0.04017703902237117
1760107128771356000,6.30935595703125,-0.12872282602488994,-0.019286592011153698,-0.015695380852464587
1760107128781421800,6.319421875,-0.17416531129479407,-0.015195815566182136,-0.01436102697616443
1760107128791487000,6.329487060546875,-0.20673545551002023,-0.018245266264677047,0.001691131424717605
1760107128801553000,6.339552978515625,-0.17249299416840075,-0.004329845897853374,-0.0033976796142756935
1760107128811619000,6.349619140625,-0.14522329444885254,0.0009039631024003028,0.0037649785567075013
1760107128821684000,6.35968408203125,-0.13702186781466005,0.007192541852593421,0.03576050122175366
1760107128831750000,6.36975,-0.09491115731596945,0.04212912293821573,0.07867523984601721
1760107128841816000,6.379816162109375,-0.04667991811037063,0.041132805377244945,0.09999352034786715
1760107128851881000,6.389880859375,-0.04954349084794521,0.0020978490620851514,0.09836754484754055
1760107128861947100,6.399947021484375,-0.09012275399565696,-0.017515198424458502,0.026353534722700713
1760107128872013000,6.410012939453125,-0.14706453840136527,-0.04324672879129648,-0.04502816884797066
1760107128882078000,6.420077880859375,-0.16553893724679947,-0.04660743739604949,-0.06231184180518612
1760107128892143900,6.430143798828125,-0.11797814464867114,-0.024546412235498426,-0.04374669593637809
1760107128902210000,6.4402099609375,-0.02444996612370014,-0.023420330815017223,-0.026574611861165612
1760107128912275200,6.450275146484375,0.01528232480585575,-0.05008066646456718,-0.026348602819256484
1760107128922340900,6.4603408203125,-0.00814238992333412,-0.04208966771066189,-0.011923771625570952
1760107128932406000,6.470406005859375,-0.041003626039624215,-0.021182781021296976,-0.0016144494593143461
1760107128942472000,6.480471923828125,-0.09748363815248012,0.01099544126689434,0.03879583206335083
1760107128952538000,6.4905380859375,-0.1393997028619051,0.023671090705692767,0.09319216976994649
1760107128962603000,6.50060302734375,-0.15071721569001673,0.02863017441779375,0.13149320405367762
1760107128972669000,6.5106689453125,-0.09542202944755554,0.03995119437724352,0.1326560190216638
1760107128982734800,6.52073486328125,-0.04082476234138012,0.037649931697547434,0.10898953142585233
1760107128992800000,6.530800048828125,0.015434885019063949,0.04286825086772442,0.07522802200159058
1760107129002866000,6.540865966796875,0.031401100435853,0.022250702513754366,0.025747769115585833
1760107129012932000,6.55093212890625,-0.013742694148421287,-0.0071776365444064134,0.024144224642775953
1760107129022997000,6.5609970703125,-0.05668342573046684,0.011122574777901172,0.04214285920262337
1760107129033063000,6.57106298828125,-0.09851531928777695,0.05912555818557739,0.06373389223124831
1760107129043129000,6.581129150390625,-0.09987141007184981,0.08095569719970226,0.08193407724518328
1760107129053194000,6.591194091796875,-0.06920797626078129,0.07525251712203025,0.069009987736959
1760107129063260200,6.60126025390625,-0.09813596458137035,0.006400806953012943,0.0797019525452517
1760107129073324800,6.61132470703125,-0.17233283517062664,-0.031962241449952127,0.08153784446921199
1760107129083391000,6.621390869140625,-0.1780769317805767,0.0009384498938918113,0.03090482308520004
1760107129093457000,6.631456787109375,-0.15512743334770202,0.02703238383233547,0.032638259281683714
1760107129103522000,6.64152197265625,-0.11729483855962752,0.01788403173685074,0.07813179888539015
1760107129113588000,6.651587890625,-0.08669745572209357,0.02914396915882826,0.09649734879517927
1760107129123654000,6.66165380859375,-0.03558861525356769,0.03734977970719337,0.0797998964943923
1760107129133719000,6.671718994140625,-0.017433949881792067,0.01697363889366388,0.04624594713989645
1760107129143785000,6.681784912109375,-0.03220247994661331,-0.029110359150171277,0.01880616981675848
1760107129153851100,6.69185107421875,-0.07282616675794124,-0.053548634836077684,-0.016330226423591374
1760107129163916300,6.701916259765625,-0.11893851411342621,-0.03299859876036644,-0.027121925279311836
1760107129173982500,6.711982421875,-0.16274667617976665,-0.009595803602039814,0.008242306633852422
1760107129184047400,6.72204736328125,-0.18818389977514743,0.0035009938582777973,0.0620994228972122
1760107129194113300,6.73211328125,-0.19044366140067576,0.018055881172418593,0.08757071315897628
1760107129204179200,6.74217919921875,-0.18709785810410975,0.026832769607007503,0.11398575054425746
1760107129214244400,6.752244384765625,-0.16675649634301662,0.044323710373044015,0.05925484712105244
1760107129224310300,6.762310302734375,-0.11613456260859965,0.0222623929515481,-0.017179719392396507
1760107129234376400,6.77237646484375,-0.038107320076227184,-0.025408289761841295,-0.012443228922411799
1760107129244441300,6.78244140625,-0.00011748889982700347,-0.03021393647789955,0.04587683983286842
1760107129254507300,6.79250732421875,-0.03862696003615856,0.0098076927870512,0.1221283231306821
1760107129264573400,6.802573486328125,-0.07700783635675906,0.08076485080271958,0.1341142915385775
1760107129274638300,6.812638427734375,-0.06417465826869011,0.05965192014724016,0.08853681824477388
1760107129284704500,6.82270458984375,-0.020379940205812453,-0.025631869384646414,-0.010719181608781218
1760107129294769400,6.832769287109375,-0.0325906024813652,-0.08469634503275156,-0.09130255663106217
1760107129304835300,6.84283544921875,-0.07012333754003047,-0.07317717215269803,-0.08023711886787786
1760107129314901200,6.8529013671875,-0.15169336724579333,0.010038871194422245,0.002055854817572981
1760107129324966400,6.86296630859375,-0.22961422679424284,0.08090279796868562,0.07447386089973151
1760107129335032600,6.873032470703125,-0.22510054876208305,0.0753445793196559,0.09960948946634307
1760107129345098200,6.88309814453125,-0.17462474550008772,0.036161446705460544,0.0806369683730416
1760107129355163400,6.893163330078125,-0.07669102549254894,-0.031473873411118986,0.0597798208432272
1760107129365229300,6.903229248046875,-0.0002028290957212448,-0.07056406704485416,0.07232685719998554
1760107129375295500,6.91329541015625,0.06082651688456535,-0.03811638016551733,0.0901176028965041
1760107129385360100,6.923360107421875,0.0975888520926237,0.008496317927539349,0.056346942051406945
1760107129395426300,6.93342626953125,0.053902855101227755,0.015603519584238529,0.035175723603740335
1760107129405492200,6.9434921875,-0.05357026214599609,-0.004245967006683349,0.007869454733468591
1760107129415557400,6.953557373046875,-0.1675368330657482,-0.005215981082618237,-0.016462565832678227
1760107129425623300,6.963623291015625,-0.21825813552141188,0.021762334474921225,-0.02759531494472176
1760107129435688200,6.973688232421875,-0.21260463980436323,0.05021627554297447,0.011012611597403884
1760107129445754400,6.98375439453125,-0.19834756639301776,0.03404898459613323,0.06143186236657202
1760107129455820300,6.9938203125,-0.14391104280650616,0.019018296463787554,0.08288697578953579
1760107129465885400,7.003885498046875,-0.06377075364291668,0.011011807879805564,0.05414722178373486
1760107129475951400,7.013951416015625,-0.034683190846443175,-0.017401801177859305,0.018838245455455035
1760107129486017500,7.024017578125,-0.038764907202124596,-0.02513444125652313,-0.0013327099084854126
1760107129496082400,7.03408251953125,-0.00844224965274334,-0.0013736264407634734,0.043746184479724615
1760107129506148400,7.0441484375,0.05010521638393402,0.03837356979697942,0.09032351899845525
1760107129516214300,7.05421435546875,0.0819254190146923,0.03217646872252226,0.10131284105181694
1760107129526279400,7.064279541015625,0.06316752705276012,-0.011108838513493537,0.09149444420766085
1760107129536345300,7.074345458984375,-0.017110709276795387,-0.03415039914399385,0.05430659533021971
1760107129546410200,7.08441015625,-0.10071195254921912,-0.02928542345613241,0.026156368182785807
1760107129556476400,7.094476318359375,-0.23300386923253535,0.01828910540640354,0.04566383640300482
1760107129566542300,7.104542236328125,-0.28258476948142053,0.07799158669710159,0.08892497731214388
1760107129576607500,7.114607421875,-0.2461158642619848,0.11163578988462686,0.14176818555891513
1760107129586673200,7.124673095703125,-0.12247487154603004,0.11447159783244132,0.1692098625781946
1760107129596739300,7.1347392578125,0.020132687446475027,0.10991554196327924,0.13430245278812944
1760107129606804500,7.144804443359375,0.13307926766872405,0.09128361446857453,0.0389120971204713
1760107129616870400,7.154870361328125,0.18056290337741374,0.013537819226086139,-0.024040143213793636
1760107129626936300,7.164936279296875,0.16233867990076542,-0.04304185386896133,-0.050625532197300344
1760107129637001200,7.175001220703125,0.08540157069265841,-0.08243804471194743,-0.01509052856080234
1760107129647067400,7.1850673828125,-0.030603228056430815,-0.0874307384327054,0.04145140633974224
1760107129657132300,7.19513232421875,-0.1563999375015497,-0.03839578162878751,0.05919703425290063
1760107129667198500,7.205198486328125,-0.20220482634305953,0.0014367548048496246,0.04655894034551456
1760107129677264400,7.215264404296875,-0.1894569884508848,-0.023119886563718318,0.029059414414223283
1760107129687329300,7.225329345703125,-0.16167349399030206,-0.06312310338914394,0.0587307136490941
1760107129697395200,7.235395263671875,-0.12914601987302302,-0.05216127213090658,0.053048594625759865
1760107129707461400,7.24546142578125,-0.11770751101374625,-0.03402034302353859,0.03219146536225453
1760107129717526500,7.255526611328125,-0.17003157249093054,-0.03532002744525671,0.052045427198894316
1760107129727592400,7.265592529296875,-0.2806798126429319,-0.03323240751624107,0.05078114288412034
1760107129737658400,7.275658447265625,-0.3869499838411808,-0.013112871812283992,0.034370544700697066
1760107129747723300,7.28572314453125,-0.41567748115360736,0.014334814822673797,0.03759177176952362
1760107129757789400,7.29578955078125,-0.3579161970585584,0.03475917869210243,0.043559667197987435
1760107129767854300,7.305854248046875,-0.2633569219201803,0.03164835319519043,0.034140681467577816
1760107129777920300,7.315920166015625,-0.14163316100239753,0.009793956522643565,0.017292641714960335
1760107129787986200,7.325986083984375,-0.04028174150586128,-0.007404138776659965,-0.03239429445797577
1760107129798051300,7.33605126953125,0.011267828467488288,-0.03216419376283884,-0.09036991542344912
1760107129808117500,7.346117431640625,0.046076691520214076,-0.03243015122264623,-0.12566173968752845
1760107129818183400,7.356183349609375,0.007329319974780082,-0.049745443160831924,-0.09236445024153217
1760107129828248300,7.366248291015625,-0.07645546317100524,-0.04885463180094957,-0.046040615559834984
1760107129838314200,7.376314208984375,-0.13420330326259136,-0.015701719261705875,-0.01632883818410337
1760107129848380400,7.38638037109375,-0.1377308928668499,0.0015153729990124703,-0.018895071942918
1760107129858445300,7.3964453125,-0.1009744028776884,0.018636895930767058,-0.01079244777439162
1760107129868511500,7.406511474609375,-0.07592822442650794,0.0247960030823946,-0.0008376381342299282
1760107129878576400,7.416576416015625,-0.11699380978643893,0.018406886567175387,-0.01042876556115225
1760107129888642300,7.426642333984375,-0.15131459706127642,0.01953647511899471,0.0006219312906265258
1760107129898708200,7.436708251953125,-0.16121289074122905,0.040242286278307435,0.03625115254921838
1760107129908773400,7.4467734375,-0.11772563119232654,0.030495968289673325,0.07710057440781966
1760107129918839600,7.456839599609375,-0.0501584078758955,0.009976035091280937,0.10626598821347578
1760107129928905200,7.4669052734375,-0.05823474682569504,-0.002867079868912697,0.1359935294139199
1760107129938970400,7.476970458984375,-0.09350304408371447,0.026073475672304627,0.12202146522272378
1760107129949036300,7.487036376953125,-0.1560685135900974,0.056283612757921216,0.10526565206451341
1760107129959102500,7.4971025390625,-0.22087328645586965,0.06086188045889139,0.08934227114245295
1760107129969167400,7.50716748046875,-0.20215455746054647,0.06761369280666113,0.08951592894261702
1760107129979233300,7.5172333984375,-0.115283498737216,0.07209843700528144,0.07168912555202842
1760107129989298400,7.52729833984375,-0.0531733717828989,0.03845423381775617,0.035071569109521805
1760107129999364400,7.5373642578125,-0.022318214792013166,-0.025779461161792278,-0.008758165467809885
1760107130009430500,7.547430419921875,0.0073871876418590545,-0.0679132602751255,-0.025647633209358898
1760107130019495200,7.5574951171875,-0.018837386938929557,-0.06204173789322376,-0.0027984350794926284
1760107130029561300,7.567561279296875,-0.0902910962998867,-0.017851883032917976,0.05958791500031948
1760107130039627300,7.577627197265625,-0.16102584373652934,0.0355272404551506,0.06905939810294658
1760107130049692400,7.5876923828125,-0.14877426492869852,0.06671878979355096,0.055314128404948856
1760107130059758300,7.59775830078125,-0.0477577764749527,0.04820055180639028,0.0363552339782007
1760107130069824500,7.607824462890625,0.0928881270557642,-0.04819704467505216,0.03227304269848391
1760107130079889400,7.617889404296875,0.08749474357962608,-0.08838380137383937,0.04151647093258798
1760107130089955300,7.627955322265625,0.09395371046066284,-0.04800999767035245,-0.02539954019980505
1760107130100020500,7.6380205078125,0.01941664813160896,-0.04052022643685341,-0.010935911365691572
1760107130110086400,7.64808642578125,-0.11123334656357764,-0.018780396054685115,0.06555639495067297
1760107130120152600,7.658152587890625,-0.16301555624902248,0.04444675223082304,0.11718889396712183
1760107130130217200,7.66821728515625,-0.17511282127797603,0.08474836748093366,0.10586749041518195
1760107130140283400,7.678283447265625,-0.1636941861629486,0.06288637202382087,0.09002194223599508
1760107130150349300,7.688349365234375,-0.12505202855765818,0.014490297645330429,0.08724135334044694
1760107130160414500,7.69841455078125,-0.09517360764443873,-0.011603344032168388,0.0447283639174886
1760107130170480000,7.708480224609375,-0.06744388919770718,-0.006695990507304668,0.018265395737253127
1760107130180545000,7.718544921875,-0.06259878725409507,-0.009883388371765613,0.031178890786226838
1760107130190611200,7.728611083984375,-0.06875964797139167,-0.032331951545178886,0.07235997401829808
1760107130200677000,7.738677001953125,-0.09427285941243171,-0.025641806256771087,0.08505494921207428
1760107130210742300,7.7487421875,-0.19424363820552826,-0.026960779900848865,0.05603283460093662
1760107130220808200,7.75880810546875,-0.26992110274136066,-0.03198562232553959,0.06304939883211627
1760107130230874000,7.7688740234375,-0.2712690102189779,0.0255932909399271,0.09273401420628652
1760107130240939300,7.778939208984375,-0.2129074221432209,0.12167758368849754,0.0948138161550276
1760107130251005200,7.789005126953125,-0.10095102200210093,0.19424217690080403,0.07626200469182803
1760107130261071000,7.799071044921875,0.015043839874863624,0.12507161004096268,0.025674557748902586
1760107130271136000,7.809135986328125,0.022118892827630042,0.00018295535147190093,0.017787877885997293
1760107130281202200,7.8192021484375,-0.052363224443793294,-0.07383066762536764,0.019124076659511775
1760107130291267000,7.82926708984375,-0.11861468898653983,-0.049588206772506235,0.005122567178122699
1760107130301333200,7.839333251953125,-0.14602701204717158,0.00033200843334198,0.0009138451755978166
1760107130311399200,7.849399169921875,-0.10376549490094185,0.00601969868093729,-0.03587455605547875
1760107130321464000,7.859464111328125,-0.016815525722503662,0.01729658723771572,-0.04916601757137105
1760107130331530000,7.869530029296875,0.030019875210523603,-0.002199263609945774,-0.05518600851325318
1760107130341596200,7.87959619140625,0.00734334850013256,-0.05251432335227728,-0.025636180233582852
1760107130351661300,7.889661376953125,-0.10604980644583702,-0.08102905469685792,0.013296740479208528
1760107130361727200,7.899727294921875,-0.16835399466753004,-0.023642449133098126,0.010320391549542545
1760107130371792100,7.909792236328125,-0.16052081682384015,0.028982348856329915,0.0029691520038992165
1760107130381858000,7.919858154296875,-0.07733224600553512,0.01917933224439621,-0.008876914742961525
1760107130391924200,7.92992431640625,0.050884384062886236,-0.03351648515462875,0.012766743522044271
1760107130401989000,7.939989013671875,0.1203635784804821,-0.05824585274159908,0.04876337332092225
1760107130412055300,7.95005517578125,0.04500175576508045,-0.0454354710072279,0.08905561795448884
1760107130422121000,7.960120849609375,-0.046126375880837435,0.01507102014273405,0.10880999187417328
1760107130432186000,7.97018603515625,-0.11403145284950733,0.06910685397386551,0.075553600694146
1760107130442252000,7.980251953125,-0.15497311956882476,0.06891366948932409,0.040830936353839935
1760107130452318200,7.990318115234375,-0.16387947960197924,0.022649054181575774,0.04381347756227478
1760107130462383000,8.000383056640626,-0.1349818864196539,0.011871931840479374,0.01349745068307966
1760107130472449000,8.010448974609375,-0.10615443586409092,0.025027473750710485,0.03732152172708884
1760107130482514200,8.02051416015625,-0.14683365225493908,0.030952187624573704,0.09985968310143797
1760107130492580000,8.030580078125,-0.21894377969801423,0.059902095516026016,0.13341443617353216
1760107130502646300,8.040646240234375,-0.2567711137890816,0.09221972627490758,0.15278750089174137
1760107130512711200,8.050711181640626,-0.2578933958172798,0.0992927334010601,0.16290301751894876
1760107130522777000,8.060777099609375,-0.1954308021634817,0.07881225543022155,0.12850536561561748
1760107130532843000,8.070843017578126,-0.12584288667440413,0.020083003085851668,0.05853060623342171
1760107130542908200,8.080908203125,0.0013338789522647856,-0.041728433182835575,0.013254198245424776
1760107130552974300,8.090974365234375,0.06375380250811577,-0.07904431062042713,-0.023720756800007074
1760107130563039000,8.1010390625,0.07904314157664775,-0.07567512644827365,-0.025796065236721188
1760107130573105200,8.111105224609375,0.02777005045711994,-0.0560337296500802,0.0013948518918827175
1760107130583171000,8.121171142578126,-0.044755672049522396,-0.034406419731676574,0.008262655302137135
1760107130593236200,8.131236328125,-0.13198212008178234,-0.01329553490281105,0.008743698551040142
1760107130603302100,8.14130224609375,-0.23845745846331118,-0.016806173372268675,0.020429441903345287
1760107130613368000,8.1513681640625,-0.34737609834372996,-0.011136018781363964,-0.02162120897118002
1760107130623433200,8.16143310546875,-0.36191140417456624,-0.0052080900371074676,-0.060107171367760746
1760107130633499100,8.1714990234375,-0.30093115803301335,0.012401800933480263,-0.04427024488644674
1760107130643564300,8.181564208984375,-0.24759061298966406,0.006571779605746269,-0.009478625229466705
1760107130653630200,8.191630126953125,-0.1716810932636261,0.021384148812294005,0.06275163972824811
1760107130663696100,8.201696044921874,-0.057284898754954336,0.04224894992560148,0.0675335585088469
1760107130673761000,8.211760986328125,0.054662733557820316,0.026275720246136187,0.0855047388061881
1760107130683827200,8.2218271484375,0.07186871990263462,-0.030598259620368478,0.05142638198509812
1760107130693893000,8.23189306640625,0.0462543861746788,-0.08871347171962261,-0.05073925823746249
1760107130703958000,8.2419580078125,0.039514848786592484,-0.11066343772113323,-0.11059994403086602
1760107130714024200,8.252024169921874,-0.0059463411837816236,-0.09461597376167774,-0.09649274568529799
1760107130724089000,8.262089111328125,-0.11133388432860374,-0.03464724275022745,0.011428827715478837
1760107130734155300,8.2721552734375,-0.18038403967916963,0.05977993044108152,0.08777136856392026
1760107130744221200,8.28222119140625,-0.12253916895389556,0.1122720419615507,0.12489968754015862
1760107130754286000,8.2922861328125,-0.08200549851357937,0.0807514067992568,0.15979743445273487
1760107130764352000,8.30235205078125,-0.10034311923682689,0.011717910322546958,0.12363514749705791
1760107130774418200,8.312418212890625,-0.054334232255816454,-0.003403378702700138,0.06796327342931181
1760107130784483000,8.322483154296876,0.04479425049424171,0.07085749703347682,0.03407064843866974
1760107130794549200,8.33254931640625,0.14129939900338648,0.060606736654043196,0.05719042540453374
1760107130804615200,8.342615234375,0.18591361675560472,0.02295066747665405,0.06798709269631653
1760107130814680000,8.35268017578125,0.154892455548048,0.006504267327487468,0.09302607422173023
1760107130824746200,8.362746337890625,0.034276948133110996,0.010029226583242417,0.08328152806507423
1760107130834811100,8.37281103515625,-0.125046767860651,0.03039864539504051,0.07879351419713347
1760107130844877300,8.382877197265625,-0.248547475323081,0.056140404894948,0.061344019686337556
1760107130854943000,8.39294287109375,-0.27020751846730706,0.07044307101368903,0.06858164278967306
1760107130865008000,8.403008056640624,-0.23441724316179752,0.054686698955297465,0.05253501908043399
1760107130875074000,8.413073974609375,-0.18811258810460565,0.021215221986174582,0.06739650639202445
1760107130885140200,8.42314013671875,-0.1455132173061371,0.004973696759343147,0.06936174205038696
1760107130895205400,8.433205322265625,-0.11697276699841022,0.008595978909730911,0.05596632696967572
1760107130905271000,8.44327099609375,-0.06963701532781123,0.0035898411855101583,0.06023169279657304
1760107130915336200,8.453336181640625,-0.07664660182893276,0.0021408114209771154,0.05924898363584652
1760107130925402000,8.463402099609375,-0.1322808107674122,0.0015896072790026663,0.05098616393692791
1760107130935468300,8.47346826171875,-0.2105278335303068,0.01539601431339979,0.07617860072469339
1760107130945533000,8.483532958984375,-0.22946225110292434,0.01920885059982538,-0.0022159955490380526
1760107130955599000,8.49359912109375,-0.21075579706728456,-0.018500702330470083,-0.046742151425313204
1760107130965665000,8.5036650390625,-0.17873802603781222,-0.07164367897510528,-0.041703828464541584
1760107130975730200,8.513730224609375,-0.14153145419359206,-0.07669424036294221,-0.05415675679706037
1760107130985796000,8.523796142578124,-0.06126373925805091,-0.05683364785611629,-0.07631022774772718
1760107130995861000,8.533861083984375,0.008612345522642135,-0.05165303034782409,-0.05002097216658294
1760107131005927200,8.54392724609375,0.043703532648086546,-0.05735591816455125,0.02425203239880502
1760107131015993000,8.5539931640625,0.10021101728975772,-0.017106033101677895,0.072275382741075
1760107131026058200,8.564058349609375,0.13723521830439567,0.016151508855819702,0.10347568164151161
1760107131036124200,8.574124267578124,0.09803893394768237,0.02791851901710033,0.11938870556633918
1760107131046190300,8.5841904296875,0.017288403931260108,0.041542555221915245,0.12303619522321968
1760107131056255000,8.5942548828125,-0.08473404669463634,0.07282879710644483,0.09775533123333006
1760107131066321200,8.604321044921875,-0.17813889110088346,0.08926876751482486,0.07284288043072447
1760107131076386300,8.61438623046875,-0.2743371656179428,0.05732289267778396,0.05668296907274052
1760107131086452200,8.6244521484375,-0.2731967634111643,0.05618687438517809,0.03939021775992587
1760107131096518100,8.63451806640625,-0.166630824136734,0.04821194998323917,0.020271602726820857
1760107131106583000,8.6445830078125,-0.060875032201409336,0.018432313269376752,0.04694227710729464
1760107131116649200,8.654649169921875,-0.023117840737104413,-0.02697363938242197,0.0806869449946098
1760107131126715100,8.664715087890626,-0.04545008405447006,-0.03932984760850668,0.07901554118366912
1760107131136780300,8.6747802734375,-0.09767302324473857,-0.019957623140513896,0.07571213399041443
1760107131146846000,8.684845947265625,-0.09891279417276382,0.002244271795451641,0.036168351370282466
1760107131156911000,8.6949111328125,-0.06718319243490696,-0.022062486465275286,0.04120506689585745
1760107131166977500,8.7049775390625,-0.06836100404262542,-0.046663259236514563,0.025796138301957396
1760107131177043700,8.715043701171876,-0.03542962529957294,-0.03410743678510189,-0.02638982987878844
1760107131187108900,8.72510888671875,-0.031088965746760365,-0.04182283346801996,-0.03871849251082167
1760107131197174500,8.735174560546875,-0.0712163934737444,-0.04962678521722555,-0.03868462677383795
1760107131207240700,8.74524072265625,-0.153864866065979,-0.027087328889966008,-0.03601602861909196
1760107131217305600,8.7553056640625,-0.21379005019664762,0.011655658741295337,-0.0044871005524881186
1760107131227371800,8.765371826171876,-0.2261824987798929,0.03660860595107078,0.012632467884197831
1760107131237436400,8.7754365234375,-0.20602643045783042,0.05102554609924555,0.020328575344756246
1760107131247502600,8.785502685546875,-0.13797054684162138,0.04292845662236214,0.03458948468100279
1760107131257568500,8.795568603515624,-0.054955579024553294,0.042220892874896526,0.0733186995152384
1760107131267633700,8.805633544921875,0.006157938107848167,0.04133768029958009,0.08465208576591685
1760107131277699600,8.815699462890626,0.062441550865769385,0.009497603924572467,0.06522785711605102
1760107131287765800,8.825765869140625,0.04660568383038044,-0.015355682303011417,0.052061136224679644
1760107131297830700,8.83583056640625,-0.04630114792585373,-0.012471359038352966,0.04158800179883838
1760107131307896600,8.845896484375,-0.16772738720178604,-0.0005108721315860748,0.057986270223651076
1760107131317961700,8.855961669921875,-0.2656792273879051,0.02003507229089737,0.09741645466778427
1760107131328027600,8.866027587890626,-0.2791846056491136,0.0676756521269679,0.11036277427412569
1760107131338093800,8.87609375,-0.18651333621442318,0.04876023151576519,0.06320471725799143
1760107131348158700,8.88615869140625,-0.054931029105186456,-0.005317687891423702,0.0048224334540776905
1760107131358224600,8.896224609375,0.05445581280887127,-0.052019525572657585,-0.05674775967095047
1760107131368290600,8.90629052734375,0.11850362982749939,-0.057761868616938584,-0.09247128988318144
1760107131378355700,8.916355712890624,0.015407997012138366,-0.07738368393182754,-0.08645601164903491
1760107131388421600,8.926421630859375,-0.16150924333930014,-0.05472761548757553,-0.028189517978206274
1760107131398486500,8.936486572265625,-0.29545711053609847,-0.006056231299042702,0.029447281220648436
1760107131408552700,8.946552734375,-0.3306587722986936,0.04308978466391563,0.07378755913600325
1760107131418618600,8.95661865234375,-0.2413537644267082,0.05725070422440767,0.13799319706484675
1760107131428683800,8.966683837890624,-0.08970598988831043,0.05917991872131824,0.17645418941695243
1760107131438749400,8.97674951171875,0.08502338503003119,0.04170388326346874,0.1438581070428714
1760107131448815600,8.986815673828126,0.18027473408579825,0.01618161173313856,0.08822514021340758
1760107131458880800,8.996880859375,0.1666314086586237,-0.03361410031020641,0.013717687571328133
1760107131468946700,9.00694677734375,0.03682312548458576,-0.040916240017116065,-0.012704784201737493
1760107131479011600,9.017011474609374,-0.12783435275256633,0.005220657257735729,0.00997437285715714
1760107131489077500,9.027077392578125,-0.21708616913259027,0.05113134456127882,0.027828466113470493
1760107131499143700,9.037143798828126,-0.2716179697871208,0.04914572370201349,0.06759186456734315
1760107131509208600,9.04720849609375,-0.2571001996129751,0.054287762765586375,0.1004673666710034
1760107131519274800,9.057274658203125,-0.20758359677195548,0.050638300347328184,0.13070822768844664
1760107131529340700,9.067340576171874,-0.18947861576080322,0.058867784032225604,0.14076684476295484
1760107131539405600,9.077405517578125,-0.12941080828905105,0.07321867320686579,0.10684110295400023
1760107131549471700,9.0874716796875,-0.08144026584625244,0.02122106720507145,0.052079274669568985
1760107131559537700,9.09753759765625,-0.06732406221032142,-0.03151011376827955,0.02778873689128086
1760107131569602800,9.107602783203125,-0.059978960144519804,-0.05003565827906131,-0.00817647485602647
1760107131579668700,9.117668701171874,-0.1095662901341915,-0.04954173728227615,-0.03324692923193797
1760107131589733600,9.127733642578125,-0.21233459069132804,-0.04922258833050728,-0.03827184472186491
1760107131599799600,9.137799560546876,-0.23510347186028957,-0.024985388174653053,-0.07328377433232963
1760107131609865700,9.14786572265625,-0.14793722958266733,-0.032281682662665845,-0.08809703858802094
1760107131619930600,9.1579306640625,-0.032412323305010794,-0.0854459943562746,-0.05795295247593894
1760107131629996500,9.16799658203125,0.070784431797266,-0.09828706348985433,-0.019909053024742752
1760107131640061700,9.178061767578125,0.12762392487227917,-0.09052022888064384,-0.012341175053734332
1760107131650127600,9.188127685546876,0.08991758681237697,-0.0650482262328267,-0.02646853940449655
1760107131660193800,9.19819384765625,-0.00787584794163704,-0.05118775092363357,-0.04302546898974106
1760107131670258700,9.2082587890625,-0.11159984178841113,-0.02864917137920856,-0.06368371468028053
1760107131680324600,9.21832470703125,-0.16947335408627986,0.005563187085092068,-0.01737779924776405
1760107131690390500,9.228390625,-0.18653554804623126,0.06794336315244436,0.06232716723848134
1760107131700455700,9.23845556640625,-0.14330197099745273,0.11613251678198576,0.11872753824386745
1760107131710521600,9.248521484375,-0.10163082095980644,0.11503566145598888,0.14006289774468167
1760107131720586500,9.25858642578125,-0.07412789700627327,0.08194587728083133,0.1336965958494693
1760107131730652700,9.268652587890625,-0.05141571446061134,0.046238604083657264,0.1035734429275617
1760107131740718600,9.278718505859375,-0.017935469663143157,0.0311702142894268,0.06730272716134786
1760107131750783700,9.28878369140625,-0.00008241758644580841,0.01638765569925308,0.06941120721530168
1760107131760849700,9.298849609375,-0.02914893759489059,0.026889760491251944,0.072962634352874
1760107131770914600,9.30891455078125,-0.04367021490037441,0.044216450606286525,0.08584536893740295
1760107131780980500,9.31898046875,-0.05135024800896644,0.05481120211780071,0.09051663041776045
1760107131791046700,9.329046630859375,-0.10152034632265568,0.04106763118654489,0.0802130438725464
1760107131801111800,9.33911181640625,-0.16530805110037325,0.03482143027335405,0.0784746392400004
1760107131811177700,9.349177734375,-0.1944160721629858,0.04225917905867099,0.07449780803089961
1760107131821243600,9.35924365234375,-0.15636486618816853,0.042783787454664705,0.04802183423861861
1760107131831308500,9.36930859375,-0.08201543538570404,-0.007913841864466666,0.028555739208403975
1760107131841374700,9.379374755859375,-0.004585574224591255,-0.04395984549671411,0.01347200571456924
1760107131851439600,9.389439697265624,0.024586159723997116,-0.055310383811593054,0.02182911610081792
1760107131861505800,9.399505859375,-0.007584171518683433,-0.04952127901613712,0.05421223157765343
1760107131871571500,9.409571533203126,-0.06601414865553379,-0.021155893014371395,0.05021620247773826
1760107131881636600,9.41963671875,-0.12744447665214537,-0.01160538985878229,0.04646335275024176
1760107131891702500,9.42970263671875,-0.21270985374450682,-0.03233896580785513,0.005561817111913114
1760107131901768700,9.439768798828124,-0.2595838331222534,-0.057957098928093906,-0.0186446043131873
1760107131911833900,9.449833740234375,-0.23630232625603675,-0.04129033402651548,-0.01978179164957255
1760107131921899500,9.4598994140625,-0.15281155762076376,-0.02748334247022867,0.0258005404824391
1760107131931964700,9.469964599609375,-0.06536182222664357,-0.004616553884744644,0.07383329797387123
1760107131942030600,9.480030517578125,-0.005690905117988586,0.0023860183537006375,0.08188335170494392
1760107131952096800,9.4900966796875,-0.026236849540472028,-0.002492401337623596,0.056743284425232556
1760107131962161700,9.50016162109375,-0.0599397971779108,-0.0036100071907043457,0.03160402086311951
1760107131972227600,9.5102275390625,-0.09773907421827316,0.022515198668837545,0.04270104107465595
1760107131982293500,9.52029345703125,-0.14512567929327488,0.050231180851161475,0.05156451181415468
1760107131992358700,9.530358642578125,-0.18145020760595798,0.047559915815293785,0.0349402160811238
1760107132002424800,9.5404248046875,-0.17107845119535922,0.021025544632971287,0.015460055992938577
1760107132012489500,9.550489501953125,-0.12752864780426024,0.005024257902801037,-0.01130240659052506
1760107132022555600,9.5605556640625,-0.06198971544504165,0.008017009977996349,0.011091686449293047
1760107132032621600,9.57062158203125,-0.015047347006201743,0.021938860085606575,0.0929537396378815
1760107132042686700,9.580686767578126,0.0064244800895452495,0.047176469455659384,0.12320484805470332
1760107132052752600,9.590752685546875,-0.04914952309429645,0.05913666410148143,0.12658736663246525
1760107132062818800,9.60081884765625,-0.13361001354455948,0.03896218333989382,0.11118490431196987
1760107132072883700,9.6108837890625,-0.20522855807840823,0.029094869320094585,0.07233785351803526
1760107132082949600,9.62094970703125,-0.23292671234309673,0.05472235479056835,0.049337026756722475
1760107132093014800,9.631014892578126,-0.18690964205563068,0.030315058764815328,0.04944600355653092
1760107132103080700,9.641080810546875,-0.11805179440677166,-0.006539630901813507,0.042835809902846814
1760107132113146600,9.651146728515625,0.012543255230784416,-0.07543401116877793,0.02788715576445684
1760107132123211500,9.66121142578125,0.11561492264866828,-0.12098141811788081,0.038911841392144556
1760107132133277700,9.671277587890625,0.11642156285643578,-0.05894815579205751,0.0008146408511325717
1760107132143342800,9.6813427734375,-0.028484336206316945,0.0470645335137844,0.003460059059690684
1760107132153408800,9.69140869140625,0.008091536518931389,0.1021551370948553,0.009339125427231192
1760107132163474400,9.701474365234375,0.058304889452457424,0.06238192963302135,0.07468752191672101
1760107132173539600,9.71153955078125,0.07831073564887046,0.015066928489506243,0.12314957420350983
1760107132183605800,9.721605712890625,0.10050736988782882,0.03924918358772993,0.09505927881607786
1760107132193671700,9.731671630859376,-0.12637421707212923,0.04771685994267463,-0.004582249756343662
1760107132203736600,9.741736572265625,-0.34547640220224857,0.03643967912495136,-0.049262682878877966
1760107132213802500,9.751802490234375,-0.45286885542869565,0.03853402105569839,-0.009650310268253087
1760107132223867600,9.76186767578125,-0.3576701133430004,0.02924392240196466,0.0012659830815158783
1760107132233933600,9.77193359375,-0.15469079549610615,0.034250936909019945,0.07259111589305102
1760107132243999700,9.781999755859376,-0.03302724033296108,-0.02336509349644184,0.1292490783886984
1760107132254064600,9.792064697265625,0.004615384840965271,-0.04288374069780111,0.15009121101247147
1760107132264130600,9.802130615234375,-0.09309855493605136,0.010841127488017082,0.1013960075569339
1760107132274195700,9.81219580078125,-0.21501345451176165,0.05019610953778028,0.07137266174769029
1760107132284261600,9.82226171875,-0.25457331148386,0.08190466848760843,0.035632162134349346
1760107132294327800,9.832327880859374,-0.1666349157899618,0.06750380269140005,-0.030832634631823747
1760107132304392700,9.842392822265625,-0.07053425642848014,-0.0027259178325533865,-0.07392830104725436
1760107132314458600,9.852458740234376,-0.03404840007424354,-0.03362023779004812,-0.035874099397752435
1760107132324524500,9.862524658203125,-0.03691138828992843,-0.02003974846601486,0.0012989172367379067
1760107132334589700,9.872589599609375,-0.08067688025832176,0.020977613838016985,0.05393023629849776
1760107132344656000,9.88265576171875,-0.12342062796354293,0.046154432931542394,0.08628147706603631
1760107132354720500,9.892720458984375,-0.11016659411489962,0.03238894242942333,0.03834533008318394
1760107132364786700,9.90278662109375,-0.02643383341729641,0.004653086502850056,-0.015152268685400485
1760107132374852600,9.9128525390625,0.08555880708098411,-0.06040244625359773,-0.03943875134307891
1760107132384917800,9.922917724609375,0.11157996804416179,-0.12731997348964214,-0.05816882371632382
1760107132394983400,9.9329833984375,0.04566518810987472,-0.11965221534073352,-0.025864509096741675
1760107132405049600,9.943049560546875,-0.05049333891868591,-0.03869710266292095,0.08857915954915806
1760107132415114800,9.95311474609375,-0.21488836682736873,0.02606120071262121,0.16306989851845427
1760107132425180700,9.9631806640625,-0.3454921842932701,0.033363048158586026,0.15252594561241567
1760107132435245800,9.973245849609375,-0.3758329620212316,0.038892040713131425,0.11452699954779819
1760107132445311500,9.9833115234375,-0.3425695748448372,0.05825900448411703,0.0943964127268642
1760107132455377700,9.993377685546875,-0.1961193689495325,0.0580029838964343,0.07302243824871256
1760107132465442600,10.003442626953126,-0.02254851641654968,0.07340133629739284,0.06858182545276359
1760107132475508700,10.0135087890625,0.05843523783385753,0.0344599034845829,0.05487378249261528
1760107132485573600,10.02357373046875,0.04576572587490082,-0.022609891214966774,-0.004716434062644839
1760107132495639600,10.0336396484375,0.046590486261248586,-0.03019815438687801,-0.07065972770536318
1760107132505705500,10.04370556640625,-0.004206804040074348,-0.05462181702554226,-0.0911130254083313
1760107132515770600,10.0537705078125,-0.09598901568055153,-0.0788888277977705,-0.05793687812397256
1760107132525836800,10.0638369140625,-0.13959025699794292,-0.06465075134783983,-0.02350795429954305
1760107132535902700,10.07390283203125,-0.07773731967508793,-0.00907704042494297,-0.015755933666974305
1760107132545967600,10.083967529296874,0.03470131102502346,0.016596914535760877,0.028014545003790407
1760107132556033500,10.094033447265625,0.07297521983981133,0.007589724476635456,0.06903146891640499
1760107132566098700,10.1040986328125,0.007797522008419037,0.015439853455126284,0.06562250072313472
1760107132576164600,10.11416455078125,-0.1251215866625309,0.031948212924599644,-0.019545882268156855
1760107132586230800,10.124230712890625,-0.2828630019009113,0.052691433484852314,-0.009424045498017222
1760107132596295700,10.134295654296874,-0.37208383862078187,0.07088380051851272,0.03172786643849686
1760107132606361600,10.144361572265625,-0.3241892840236425,0.08139847253113984,0.09227814193125813
1760107132616426800,10.1544267578125,-0.2318558682411909,0.07599690574854612,0.13317657229704782
1760107132626492700,10.16449267578125,-0.06671966657638549,0.04771656768172979,0.10733938959864898
1760107132636558600,10.17455859375,0.05602817669212818,-0.02225800903737545,0.057130895503330975
1760107132646623500,10.18462353515625,0.10576046811044215,-0.08911942217200994,0.02327962543638423
1760107132656689700,10.194689697265625,0.06268997266888618,-0.09179097946882248,0.02069127117730677
1760107132666755600,10.204755615234374,-0.048014381584525104,-0.031037235559523105,-0.013059442858304827
1760107132676820700,10.21482080078125,-0.14587503635585308,0.004503741160035133,-0.018079919635131954
1760107132686886700,10.22488671875,-0.16393676274716854,0.006882160729169845,-0.004489730900991707
1760107132696951600,10.23495166015625,-0.12790215729176999,0.0069482117027044295,0.038724666523281485
1760107132707017700,10.245017822265625,-0.1512859554886818,0.011032558406889438,0.08911211564838886
1760107132717083600,10.255083740234374,-0.14735796838998794,0.031134850715100762,0.0901523271500133
1760107132727148500,10.2651484375,-0.14566285490989683,0.040461481986939905,0.07610520669491962
1760107132737214500,10.27521435546875,-0.1297884094297886,0.0459755692332983,0.07621509681018068
1760107132747279600,10.285279541015624,-0.03377542835175991,0.03126987527161836,0.0732242261648178
1760107132757345800,10.295345703125,0.07454758372306823,-0.02431523382812738,0.05111948972670361
1760107132767411700,10.30541162109375,0.020500351715087888,-0.06254267315268516,-0.022860030051134527
1760107132777476600,10.3154765625,-0.041560675400495524,-0.06032704292982816,-0.1347376658676192
1760107132787542500,10.32554248046875,-0.08990589637458324,-0.026000118175148964,-0.0867765853729099
1760107132797608700,10.335608642578125,-0.12120002930462359,0.030834990985691545,0.03041126741459593
1760107132807673600,10.345673583984375,-0.11577741973400116,0.056337681032717225,0.14273799870545043
1760107132817739800,10.35573974609375,-0.08824585420787334,0.056337388771772384,0.1813936916457489
1760107132827804700,10.3658046875,-0.07165712297856808,0.037214170628786084,0.13506717181662098
1760107132837870600,10.37587060546875,-0.07302022802531719,0.014700141003727912,0.03446200411012396
1760107132847936500,10.3859365234375,-0.08186988943517208,0.00037672435790300367,0.009915920668188482
1760107132858001700,10.396001708984375,-0.14162731578350066,-0.007338672325015068,0.035672074019629504
1760107132868067800,10.40606787109375,-0.21457915474772452,0.002079436622560024,-0.00518792403191328
1760107132878132500,10.416132568359375,-0.23961364276111125,0.04414192406535148,-0.030932861869595943
1760107132888198700,10.42619873046875,-0.17734277228713036,0.06954582991302014,0.04678876704601571
1760107132898264600,10.4362646484375,-0.09557049800753593,0.024670623137056827,0.07547280880920589
1760107132908329700,10.446329833984375,-0.03729015847444534,-0.044543198342621326,0.08748378379419446
1760107132918395600,10.456395751953124,-0.020179449197649954,-0.05276245289444923,0.06397855117470026
1760107132928460500,10.46646044921875,-0.07356909407973289,-0.020293138705193996,0.00918046426679939
1760107132938526700,10.476526611328126,-0.17121698288321494,-0.006516542287170886,-0.018150518919620662
1760107132948592600,10.486592529296875,-0.18120003223717213,0.018576397915184496,-0.02426918446300551
1760107132958657800,10.49665771484375,-0.15162673175036906,0.01683861433714628,0.02565917751668021
1760107132968723500,10.506723388671874,-0.10465922887027262,0.0064782561033964155,0.04703899721372872
1760107132978789600,10.51678955078125,-0.03915069164931774,0.01957446904182434,0.04234992608204484
1760107132988854500,10.5268544921875,-0.054283963373303414,-0.008825111490488051,0.05261091559454798
1760107132998920700,10.536920654296875,-0.07972118696868419,-0.03431903370916843,0.021337441860046238
1760107133008985900,10.54698583984375,-0.10151800823509692,-0.03780249191075563,-0.07179846767801791
1760107133019051500,10.557051513671874,-0.169018011534214,-0.03800970492064953,-0.07940877828495577
1760107133029117700,10.56711767578125,-0.20244623388350008,-0.0253536369651556,-0.020763350032828747
1760107133039182600,10.5771826171875,-0.13702829755544663,0.01905073742866516,0.020758838254492727
1760107133049248800,10.587248779296875,-0.05113222134411335,0.043402796135842796,0.0763950016880408
1760107133059313400,10.5973134765625,0.08747837696671486,0.05707885478883981,0.0998536917520687
1760107133069379600,10.607379638671874,0.21372458374500272,0.03536678919643164,0.08999658859902993
1760107133079445500,10.617445556640625,0.19568740727305411,-0.018643910193443296,0.08266286644376813
1760107133089510700,10.6275107421875,0.1423930394589901,-0.015937866105139253,0.07158047754578292
1760107133099576800,10.637576904296875,0.06455225940942765,0.0016325696378946303,0.04508088541589677
1760107133109641500,10.647641357421875,-0.12341887439787387,0.00722527507841587,0.06502674505338073
1760107133119707600,10.657707763671874,-0.33457682252526283,0.04239566491991281,0.10927868709815665
1760107133129773600,10.667773681640625,-0.42585050012171266,0.09250321939140557,0.08150666387965902
1760107133139838700,10.677838623046876,-0.4252840984106064,0.0954886649429798,0.08301102229431272
1760107133149904600,10.687904541015625,-0.34721009412705894,0.06294570099562406,0.05204977458044886
1760107133159970800,10.697970703125,-0.23478256934285163,0.017419629095494747,0.02107473580325022
1760107133170035200,10.70803515625,-0.12784312058091163,0.015355682303011417,0.07448659251714125
1760107133180101000,10.71810107421875,-0.06283785670697689,0.013278876028954983,0.05355749399596825
1760107133190166300,10.728166259765626,-0.13285305769741534,0.01968348237425089,0.07570707422280684
1760107133200232200,10.738232177734375,-0.23933541034162042,-0.004028232602775097,0.10035687376754358
1760107133210298000,10.748298095703126,-0.31410394333899017,0.014891571922600268,-0.022260401923861355
1760107133220363300,10.75836328125,-0.4241524640321731,-0.01658639314174652,-0.18406179661015049
1760107133230429200,10.76842919921875,-0.3460433884352445,-0.0423591323018074,-0.21622887644981964
1760107133240494300,10.778494384765626,-0.11076280644237994,-0.017612229058146477,-0.18315969667127355
1760107133250560000,10.78856005859375,0.1398743346363306,-0.019248305827379224,-0.048053033094480634
1760107133260626200,10.798626220703126,0.18014087857306002,-0.03572217850536108,0.1573671750985086
1760107133270691000,10.808691162109374,0.07117489241957664,-0.024981588782370088,0.2054119152886793
1760107133280757200,10.81875732421875,-0.07376724700033664,0.0399301515892148,0.16312221322758122
1760107133290822100,10.828822265625,-0.03030629093647003,0.014937749151885508,0.1715044215224683
1760107133300888000,10.83888818359375,0.01817453911602497,0.06226122586280107,0.18837989727128296
1760107133310954000,10.8489541015625,0.06383329748511314,0.09927812035381793,0.17521187947196884
1760107133321019100,10.85901904296875,0.11899345917105673,0.07262567574977874,-0.000035107845999300475
1760107133331085300,10.869085205078125,0.19990648627281188,0.022310031485557553,-0.07084997131414711
1760107133341151200,10.879151123046874,0.19290975925326345,-0.023062018896639346,-0.023977215779107063
1760107133351216000,10.889216064453125,0.07470014393627643,-0.02914163107126951,-0.00813826173748821
1760107133361282000,10.899281982421876,-0.005371756166219711,0.012405015803873539,-0.04665887532234192
1760107133371347200,10.90934716796875,-0.12252689399421214,-0.020876491551101207,-0.05015544873382896
1760107133381413000,10.9194130859375,-0.1339490362405777,-0.06499298891425133,-0.032924949002265926
