time,seconds_elapsed,z,y,x
1760107122521834800,0.059834716796875,-1.026885986328125,-0.3560028076171875,-0.0589599609375
1760107122531901000,0.06990087890625,-0.9956512451171875,-0.346588134765625,-0.04156494140625
1760107122541966000,0.079966064453125,-0.9494171142578125,-0.3404083251953125,-0.003173828125
1760107122552031700,0.09003173828125,-0.9146270751953125,-0.336517333984375,0.0341796875
1760107122562097700,0.10009765625,-0.90167236328125,-0.3335723876953125,0.0535430908203125
1760107122572162800,0.110162841796875,-0.906158447265625,-0.332794189453125,0.054168701171875
1760107122582229000,0.12022900390625,-0.923370361328125,-0.333953857421875,0.041656494140625
1760107122592295000,0.130294921875,-0.9484100341796875,-0.3352508544921875,0.020599365234375
1760107122602361000,0.140361083984375,-0.97235107421875,-0.3361968994140625,0.0016326904296875
1760107122612425700,0.15042578125,-0.981536865234375,-0.3348388671875,-0.003997802734375
1760107122622492000,0.160491943359375,-0.975982666015625,-0.331268310546875,0.0042877197265625
1760107122632557800,0.170557861328125,-0.9643402099609375,-0.3321075439453125,0.0172882080078125
1760107122642623000,0.180623046875,-0.9539947509765625,-0.330047607421875,0.0315399169921875
1760107122652688600,0.190688720703125,-0.9478759765625,-0.3296966552734375,0.03216552734375
1760107122662754800,0.2007548828125,-0.9445648193359375,-0.3325347900390625,0.0265655517578125
1760107122672820000,0.210820068359375,-0.947784423828125,-0.337005615234375,0.026214599609375
1760107122682886000,0.220885986328125,-0.9576873779296875,-0.338592529296875,0.0240478515625
1760107122692951800,0.230951904296875,-0.9649810791015625,-0.3385772705078125,0.0207977294921875
1760107122703016700,0.2410166015625,-0.9671173095703125,-0.335205078125,0.0183258056640625
1760107122713083000,0.251082763671875,-0.960784912109375,-0.33306884765625,0.016448974609375
1760107122723148800,0.261148681640625,-0.945709228515625,-0.3352203369140625,0.019012451171875
1760107122733215000,0.271215087890625,-0.93328857421875,-0.3401031494140625,0.0247955322265625
1760107122743279900,0.28127978515625,-0.926361083984375,-0.34356689453125,0.025665283203125
1760107122753346000,0.291345947265625,-0.9255828857421875,-0.3458709716796875,0.0212249755859375
1760107122763411700,0.30141162109375,-0.9350128173828125,-0.3449554443359375,0.0152435302734375
1760107122773476900,0.311476806640625,-0.94940185546875,-0.3396453857421875,0.0134124755859375
1760107122783542800,0.321542724609375,-0.9566497802734375,-0.3354644775390625,0.0147247314453125
1760107122793609000,0.33160888671875,-0.953887939453125,-0.335205078125,0.0150909423828125
1760107122803673900,0.341673828125,-0.9463043212890625,-0.335968017578125,0.020355224609375
1760107122813739800,0.35173974609375,-0.9354705810546875,-0.3367462158203125,0.02508544921875
1760107122823805700,0.3618056640625,-0.93798828125,-0.33551025390625,0.0241241455078125
1760107122833870800,0.371870849609375,-0.951995849609375,-0.3365325927734375,0.02630615234375
1760107122843937000,0.38193701171875,-0.96624755859375,-0.3344573974609375,0.0251312255859375
1760107122854003000,0.3920029296875,-0.9736480712890625,-0.3321685791015625,0.018585205078125
1760107122864068900,0.40206884765625,-0.9735107421875,-0.33306884765625,0.0137176513671875
1760107122874133800,0.4121337890625,-0.9648895263671875,-0.337066650390625,0.0133056640625
1760107122884200000,0.422199951171875,-0.9547119140625,-0.3399658203125,0.0117034912109375
1760107122894265900,0.432265869140625,-0.9459075927734375,-0.3390655517578125,0.01043701171875
1760107122904331000,0.4423310546875,-0.939300537109375,-0.338653564453125,0.017669677734375
1760107122914396700,0.452396728515625,-0.9438018798828125,-0.341644287109375,0.0244293212890625
1760107122924462800,0.462462890625,-0.9544219970703125,-0.3399505615234375,0.02679443359375
1760107122934528000,0.472528076171875,-0.9579620361328125,-0.3325042724609375,0.0256195068359375
1760107122944594000,0.482593994140625,-0.9553680419921875,-0.3306884765625,0.0216064453125
1760107122954659800,0.492659912109375,-0.946044921875,-0.334747314453125,0.0187530517578125
1760107122964726000,0.50272607421875,-0.9351959228515625,-0.3395843505859375,0.016387939453125
1760107122974791000,0.512791015625,-0.9317626953125,-0.344573974609375,0.010528564453125
1760107122984856800,0.52285693359375,-0.93707275390625,-0.343719482421875,0.007537841796875
1760107122994922800,0.5329228515625,-0.944671630859375,-0.3419647216796875,0.0054931640625
1760107123004988000,0.54298779296875,-0.9532470703125,-0.3389434814453125,0.0088043212890625
1760107123015053800,0.5530537109375,-0.9579620361328125,-0.337677001953125,0.01416015625
1760107123025119700,0.56311962890625,-0.960357666015625,-0.3369293212890625,0.0214996337890625
1760107123035185000,0.573184814453125,-0.96075439453125,-0.3358612060546875,0.0250701904296875
1760107123045250800,0.583250732421875,-0.958404541015625,-0.33551025390625,0.0224456787109375
1760107123055317000,0.59331689453125,-0.9534912109375,-0.333587646484375,0.01959228515625
1760107123065382000,0.6033818359375,-0.945526123046875,-0.3344268798828125,0.01861572265625
1760107123075447800,0.61344775390625,-0.93603515625,-0.3365020751953125,0.0219268798828125
1760107123085513700,0.623513671875,-0.9263916015625,-0.3335418701171875,0.03125
1760107123095580000,0.633579833984375,-0.916748046875,-0.329132080078125,0.03265380859375
1760107123105645000,0.64364501953125,-0.930206298828125,-0.3342437744140625,0.0176239013671875
1760107123115711000,0.6537109375,-0.949554443359375,-0.338348388671875,0.0070648193359375
1760107123125776600,0.663776611328125,-0.9619598388671875,-0.3359832763671875,0.0031890869140625
1760107123135841800,0.673841796875,-0.9654693603515625,-0.3331146240234375,0.009521484375
1760107123145908000,0.683907958984375,-0.9646759033203125,-0.3318328857421875,0.0203094482421875
1760107123155973600,0.6939736328125,-0.9602203369140625,-0.3319244384765625,0.026763916015625
1760107123166038800,0.704038818359375,-0.9513397216796875,-0.332977294921875,0.0239410400390625
1760107123176104700,0.714104736328125,-0.9423065185546875,-0.33343505859375,0.0143280029296875
1760107123186171000,0.7241708984375,-0.93975830078125,-0.337127685546875,0.009185791015625
1760107123196235800,0.73423583984375,-0.94757080078125,-0.3412322998046875,0.0104827880859375
1760107123206301700,0.7443017578125,-0.9582977294921875,-0.3368377685546875,0.0147705078125
1760107123216367600,0.75436767578125,-0.9765777587890625,-0.331817626953125,0.0229339599609375
1760107123226433800,0.764433837890625,-0.9914703369140625,-0.3317108154296875,0.0199127197265625
1760107123236499000,0.7744990234375,-0.984649658203125,-0.32830810546875,0.0146636962890625
1760107123246564600,0.784564697265625,-0.9680023193359375,-0.32916259765625,0.010955810546875
1760107123256630800,0.794630859375,-0.9465789794921875,-0.337371826171875,0.009613037109375
1760107123266695700,0.80469580078125,-0.924224853515625,-0.343780517578125,0.009521484375
1760107123276761900,0.814761962890625,-0.9119873046875,-0.3466644287109375,0.0074615478515625
1760107123286827800,0.824827880859375,-0.917694091796875,-0.3482513427734375,0.0091705322265625
1760107123296892700,0.834892578125,-0.93701171875,-0.346038818359375,0.012451171875
1760107123306958600,0.84495849609375,-0.9610595703125,-0.3372344970703125,0.0146026611328125
1760107123317024800,0.855024658203125,-0.9786529541015625,-0.327056884765625,0.0140533447265625
1760107123327089700,0.865089599609375,-0.9797821044921875,-0.3212890625,0.014984130859375
1760107123337155800,0.87515576171875,-0.971099853515625,-0.320953369140625,0.017333984375
1760107123347221500,0.885221435546875,-0.9564971923828125,-0.3233184814453125,0.0210723876953125
1760107123357286700,0.89528662109375,-0.945831298828125,-0.328582763671875,0.022491455078125
1760107123367352800,0.905352783203125,-0.9433746337890625,-0.331817626953125,0.02056884765625
1760107123377418800,0.915418701171875,-0.94677734375,-0.335723876953125,0.0161895751953125
1760107123387484700,0.925484619140625,-0.9514007568359375,-0.3348388671875,0.01446533203125
1760107123397549600,0.935549560546875,-0.954864501953125,-0.333160400390625,0.010894775390625
1760107123407615700,0.94561572265625,-0.956756591796875,-0.332061767578125,0.0067138671875
1760107123417681700,0.955681640625,-0.9573974609375,-0.3350067138671875,0.003143310546875
1760107123427746800,0.965746826171875,-0.9547882080078125,-0.3399200439453125,0.00274658203125
1760107123437812700,0.975812744140625,-0.9508514404296875,-0.340240478515625,0.005645751953125
1760107123447879000,0.98587890625,-0.94281005859375,-0.33880615234375,0.009307861328125
1760107123457943600,0.995943603515625,-0.9384918212890625,-0.3408050537109375,0.015380859375
1760107123468009700,1.006009765625,-0.94268798828125,-0.3423614501953125,0.0222930908203125
1760107123478075600,1.01607568359375,-0.9545135498046875,-0.3376922607421875,0.0249176025390625
1760107123488140800,1.026140869140625,-0.96337890625,-0.330108642578125,0.02459716796875
1760107123498206700,1.036206787109375,-0.9673614501953125,-0.325042724609375,0.023193359375
1760107123508272600,1.046272705078125,-0.96417236328125,-0.3270111083984375,0.021331787109375
1760107123518337800,1.056337890625,-0.9561004638671875,-0.333587646484375,0.01373291015625
1760107123528403700,1.06640380859375,-0.9479522705078125,-0.3403778076171875,0.0064697265625
1760107123538470000,1.076469970703125,-0.9456329345703125,-0.341949462890625,0.003326416015625
1760107123548535800,1.086535888671875,-0.949462890625,-0.343902587890625,0.007843017578125
1760107123558600700,1.0966005859375,-0.9552459716796875,-0.3408660888671875,0.01776123046875
1760107123568666600,1.10666650390625,-0.9604034423828125,-0.334136962890625,0.0247802734375
1760107123578732800,1.11673291015625,-0.9601898193359375,-0.3277130126953125,0.027008056640625
1760107123588797700,1.126797607421875,-0.95245361328125,-0.327362060546875,0.025238037109375
1760107123598864000,1.13686376953125,-0.940826416015625,-0.33392333984375,0.0245208740234375
1760107123608929500,1.146929443359375,-0.93585205078125,-0.3388671875,0.0226593017578125
1760107123618994700,1.15699462890625,-0.93902587890625,-0.339569091796875,0.02099609375
1760107123629060900,1.167060791015625,-0.9491729736328125,-0.3342742919921875,0.0253448486328125
1760107123639126800,1.177126708984375,-0.96051025390625,-0.326995849609375,0.02862548828125
1760107123649191700,1.187191650390625,-0.9674530029296875,-0.3260345458984375,0.029693603515625
1760107123659257600,1.197257568359375,-0.967254638671875,-0.328216552734375,0.0296783447265625
1760107123669323800,1.20732373046875,-0.959503173828125,-0.330596923828125,0.0226898193359375
1760107123679389700,1.2173896484375,-0.945709228515625,-0.336456298828125,0.018585205078125
1760107123689454800,1.227454833984375,-0.9383392333984375,-0.34027099609375,0.0221405029296875
1760107123699520800,1.237520751953125,-0.9400634765625,-0.3364105224609375,0.0257720947265625
1760107123709586700,1.247586669921875,-0.94500732421875,-0.329010009765625,0.024688720703125
1760107123719651600,1.257651611328125,-0.952178955078125,-0.3265380859375,0.01837158203125
1760107123729717800,1.2677177734375,-0.9553070068359375,-0.3310546875,0.0130615234375
1760107123739783700,1.27778369140625,-0.9542388916015625,-0.3381805419921875,0.006683349609375
1760107123749848800,1.287848876953125,-0.94586181640625,-0.344268798828125,0.0035400390625
1760107123759914800,1.297914794921875,-0.9396820068359375,-0.347381591796875,0.0027008056640625
1760107123769980700,1.307980712890625,-0.9384765625,-0.3492584228515625,0.008819580078125
1760107123780045800,1.3180458984375,-0.9414215087890625,-0.3459930419921875,0.0167236328125
1760107123790111700,1.32811181640625,-0.94537353515625,-0.3413848876953125,0.0219879150390625
1760107123800178000,1.338177978515625,-0.94818115234375,-0.3371429443359375,0.0236053466796875
1760107123810242600,1.34824267578125,-0.9502410888671875,-0.337066650390625,0.021026611328125
1760107123820308700,1.358308837890625,-0.945556640625,-0.33624267578125,0.0167388916015625
1760107123830374700,1.368374755859375,-0.9418182373046875,-0.3374481201171875,0.018524169921875
1760107123840439800,1.378439697265625,-0.9387664794921875,-0.3361663818359375,0.02117919921875
1760107123850505700,1.388505615234375,-0.9406890869140625,-0.333160400390625,0.0239410400390625
1760107123860571600,1.398571533203125,-0.94757080078125,-0.3317108154296875,0.01995849609375
1760107123870636800,1.40863671875,-0.96270751953125,-0.332183837890625,0.0172271728515625
1760107123880702700,1.41870263671875,-0.979217529296875,-0.3342437744140625,0.015106201171875
1760107123890768600,1.4287685546875,-0.9871826171875,-0.3348846435546875,0.013214111328125
1760107123900834800,1.438834716796875,-0.9853668212890625,-0.3352508544921875,0.0118255615234375
1760107123910899700,1.448899658203125,-0.980926513671875,-0.33331298828125,0.0111846923828125
1760107123920965600,1.458965576171875,-0.9684600830078125,-0.3306732177734375,0.012451171875
1760107123931031800,1.46903173828125,-0.9468536376953125,-0.3294830322265625,0.0147857666015625
1760107123941096700,1.4790966796875,-0.92401123046875,-0.3287353515625,0.014556884765625
1760107123951163000,1.489162841796875,-0.9089813232421875,-0.336883544921875,0.0173492431640625
1760107123961228800,1.499228759765625,-0.9080810546875,-0.3426666259765625,0.0258026123046875
1760107123971293700,1.509293701171875,-0.915191650390625,-0.34283447265625,0.0318756103515625
1760107123981359600,1.519359619140625,-0.925811767578125,-0.3359222412109375,0.0363006591796875
1760107123991425800,1.52942578125,-0.9429168701171875,-0.328460693359375,0.040863037109375
1760107124001491000,1.539490966796875,-0.9583587646484375,-0.327667236328125,0.0417938232421875
1760107124011556600,1.549556640625,-0.969512939453125,-0.3290252685546875,0.042083740234375
1760107124021622800,1.559622802734375,-0.9694366455078125,-0.331695556640625,0.0377655029296875
1760107124031687700,1.569687744140625,-0.9609527587890625,-0.334014892578125,0.0307464599609375
1760107124041753900,1.57975390625,-0.94598388671875,-0.33642578125,0.022186279296875
1760107124051819800,1.58981982421875,-0.9318695068359375,-0.34100341796875,0.01702880859375
1760107124061886000,1.599885986328125,-0.930389404296875,-0.343292236328125,0.015899658203125
1760107124071950600,1.60995068359375,-0.938873291015625,-0.3399810791015625,0.014556884765625
1760107124082016800,1.620016845703125,-0.9528045654296875,-0.332855224609375,0.0152740478515625
1760107124092082700,1.630082763671875,-0.9625091552734375,-0.32623291015625,0.018096923828125
1760107124102147800,1.64014794921875,-0.960845947265625,-0.32061767578125,0.021514892578125
1760107124112213800,1.6502138671875,-0.9480438232421875,-0.322174072265625,0.0209503173828125
1760107124122279700,1.66027978515625,-0.9345245361328125,-0.328521728515625,0.01971435546875
1760107124132344800,1.6703447265625,-0.9309234619140625,-0.335357666015625,0.0155181884765625
1760107124142410800,1.68041064453125,-0.93572998046875,-0.33819580078125,0.0181427001953125
1760107124152476700,1.6904765625,-0.9462738037109375,-0.3387451171875,0.0274505615234375
1760107124162541000,1.700541015625,-0.9534912109375,-0.3345794677734375,0.036376953125
1760107124172607200,1.710607177734375,-0.9599151611328125,-0.32977294921875,0.0464324951171875
1760107124182673200,1.720673095703125,-0.9665374755859375,-0.3247528076171875,0.04913330078125
1760107124192738300,1.73073828125,-0.9711151123046875,-0.3232421875,0.0430755615234375
1760107124202804200,1.74080419921875,-0.9733734130859375,-0.3220672607421875,0.0347900390625
1760107124212870100,1.7508701171875,-0.975677490234375,-0.3253326416015625,0.0282135009765625
1760107124222935300,1.760935302734375,-0.9815521240234375,-0.331573486328125,0.026519775390625
1760107124233001200,1.771001220703125,-0.9832916259765625,-0.3328857421875,0.0251922607421875
1760107124243067400,1.7810673828125,-0.9834747314453125,-0.3326263427734375,0.0224761962890625
1760107124253132300,1.79113232421875,-0.974151611328125,-0.3342132568359375,0.022308349609375
1760107124263198200,1.8011982421875,-0.9581451416015625,-0.3351898193359375,0.023590087890625
1760107124273264000,1.81126416015625,-0.9418182373046875,-0.33673095703125,0.0196075439453125
1760107124283329300,1.821329345703125,-0.934326171875,-0.340362548828125,0.019287109375
1760107124293395200,1.831395263671875,-0.9350433349609375,-0.341156005859375,0.020660400390625
1760107124303461400,1.84146142578125,-0.9434814453125,-0.338104248046875,0.019378662109375
1760107124313527300,1.85152734375,-0.953094482421875,-0.332977294921875,0.0163421630859375
1760107124323592200,1.86159228515625,-0.9625244140625,-0.3323974609375,0.013336181640625
1760107124333658000,1.871658203125,-0.9691314697265625,-0.3359527587890625,0.013885498046875
1760107124343724300,1.881724365234375,-0.9701385498046875,-0.338470458984375,0.0098876953125
1760107124353789400,1.89178955078125,-0.97332763671875,-0.337677001953125,0.009185791015625
1760107124363855000,1.901855224609375,-0.9744873046875,-0.331329345703125,0.011260986328125
1760107124373921300,1.91192138671875,-0.96246337890625,-0.326812744140625,0.0120391845703125
1760107124383986200,1.921986083984375,-0.947235107421875,-0.328643798828125,0.013885498046875
1760107124394052400,1.93205224609375,-0.9354400634765625,-0.333892822265625,0.0125579833984375
1760107124404118300,1.9421181640625,-0.931488037109375,-0.341461181640625,0.010955810546875
1760107124414183200,1.95218310546875,-0.9386444091796875,-0.3426055908203125,0.012298583984375
1760107124424249000,1.9622490234375,-0.9488067626953125,-0.335174560546875,0.013824462890625
1760107124434315300,1.972315185546875,-0.957733154296875,-0.3259124755859375,0.01605224609375
1760107124444380200,1.982380126953125,-0.967254638671875,-0.3226165771484375,0.0257110595703125
1760107124454446300,1.9924462890625,-0.9744873046875,-0.3196868896484375,0.0327911376953125
1760107124464512300,2.00251220703125,-0.9743194580078125,-0.3190460205078125,0.0284271240234375
1760107124474577200,2.0125771484375,-0.96661376953125,-0.3209686279296875,0.020904541015625
1760107124484643300,2.022643310546875,-0.951202392578125,-0.32635498046875,0.0191192626953125
1760107124494709200,2.032709228515625,-0.93096923828125,-0.3316650390625,0.017425537109375
1760107124504775200,2.042775146484375,-0.9155120849609375,-0.3349761962890625,0.01629638671875
1760107124514840000,2.052840087890625,-0.9190673828125,-0.3380584716796875,0.01690673828125
1760107124524906200,2.06290625,-0.93505859375,-0.337554931640625,0.0146484375
1760107124534972200,2.07297216796875,-0.954864501953125,-0.3363800048828125,0.008758544921875
1760107124545037300,2.083037353515625,-0.97210693359375,-0.3355712890625,0.00689697265625
1760107124555103200,2.093103271484375,-0.9733123779296875,-0.3352203369140625,0.009765625
1760107124565169400,2.10316943359375,-0.9599609375,-0.3362884521484375,0.0143280029296875
1760107124575234000,2.113234130859375,-0.945220947265625,-0.34002685546875,0.0184478759765625
1760107124585300200,2.12330029296875,-0.933563232421875,-0.3421478271484375,0.01898193359375
1760107124595366100,2.1333662109375,-0.928192138671875,-0.343109130859375,0.012298583984375
1760107124605431300,2.143431396484375,-0.935638427734375,-0.3430938720703125,0.006927490234375
1760107124615497500,2.15349755859375,-0.9476318359375,-0.34100341796875,0.0059967041015625
1760107124625563100,2.163563232421875,-0.956268310546875,-0.3391265869140625,0.011444091796875
1760107124635628300,2.173628173828125,-0.96099853515625,-0.334136962890625,0.016754150390625
1760107124645694200,2.183694091796875,-0.9603424072265625,-0.3335418701171875,0.01910400390625
1760107124655760400,2.193760498046875,-0.9564208984375,-0.3353424072265625,0.0237579345703125
1760107124665825000,2.203824951171875,-0.953582763671875,-0.3336334228515625,0.0271148681640625
1760107124675891200,2.21389111328125,-0.949432373046875,-0.3308868408203125,0.0262298583984375
1760107124685957000,2.22395703125,-0.951141357421875,-0.3289337158203125,0.024169921875
1760107124696022300,2.234022216796875,-0.9595947265625,-0.328643798828125,0.024688720703125
1760107124706088200,2.244088134765625,-0.969207763671875,-0.3260040283203125,0.026123046875
1760107124716154400,2.254154296875,-0.9688873291015625,-0.32220458984375,0.026275634765625
1760107124726219300,2.26421923828125,-0.964813232421875,-0.32110595703125,0.0315704345703125
1760107124736285200,2.27428515625,-0.9596099853515625,-0.3231353759765625,0.0389251708984375
1760107124746351400,2.284351318359375,-0.9550018310546875,-0.326080322265625,0.0385589599609375
1760107124756416300,2.294416259765625,-0.9485931396484375,-0.327911376953125,0.031097412109375
1760107124766482200,2.304482177734375,-0.9419097900390625,-0.33074951171875,0.0235443115234375
1760107124776548000,2.314548095703125,-0.9382476806640625,-0.3348236083984375,0.0170440673828125
1760107124786614300,2.3246142578125,-0.9332733154296875,-0.336944580078125,0.0146331787109375
1760107124796679200,2.33467919921875,-0.93505859375,-0.3353424072265625,0.01593017578125
1760107124806745300,2.344745361328125,-0.94500732421875,-0.3332366943359375,0.0185699462890625
1760107124816811300,2.354811279296875,-0.9524383544921875,-0.3331298828125,0.011932373046875
1760107124826876200,2.364876220703125,-0.950775146484375,-0.335540771484375,0.0055389404296875
1760107124836942000,2.374942138671875,-0.9485626220703125,-0.3411407470703125,0.008056640625
1760107124847008300,2.38500830078125,-0.948455810546875,-0.34228515625,0.01104736328125
1760107124857073400,2.395073486328125,-0.95068359375,-0.3384857177734375,0.013702392578125
1760107124867139300,2.405139404296875,-0.950164794921875,-0.3355865478515625,0.0162200927734375
1760107124877205200,2.415205322265625,-0.9459075927734375,-0.33294677734375,0.021575927734375
1760107124887270100,2.425270263671875,-0.9474334716796875,-0.3312225341796875,0.0251922607421875
1760107124897336300,2.43533642578125,-0.956756591796875,-0.3287353515625,0.0278778076171875
1760107124907402200,2.44540234375,-0.965728759765625,-0.32574462890625,0.0279388427734375
1760107124917467100,2.455467041015625,-0.97149658203125,-0.32330322265625,0.029541015625
1760107124927533000,2.465532958984375,-0.9743804931640625,-0.322784423828125,0.0278778076171875
1760107124937599200,2.47559912109375,-0.9679107666015625,-0.3235626220703125,0.025482177734375
1760107124947664400,2.485664306640625,-0.953125,-0.3274688720703125,0.0243988037109375
1760107124957730300,2.495730224609375,-0.9384765625,-0.334991455078125,0.02178955078125
1760107124967796200,2.505796142578125,-0.92669677734375,-0.3394927978515625,0.0180816650390625
1760107124977861000,2.515861083984375,-0.9183197021484375,-0.340362548828125,0.0186004638671875
1760107124987927300,2.52592724609375,-0.9166259765625,-0.337249755859375,0.0195465087890625
1760107124997993200,2.5359931640625,-0.9263916015625,-0.33489990234375,0.0225067138671875
1760107125008058400,2.546058349609375,-0.9433135986328125,-0.332244873046875,0.019622802734375
1760107125018124300,2.556124267578125,-0.9599609375,-0.328765869140625,0.0141754150390625
1760107125028190200,2.566190185546875,-0.972442626953125,-0.3289337158203125,0.0124359130859375
1760107125038255000,2.576255126953125,-0.9776458740234375,-0.3291015625,0.0122528076171875
1760107125048321300,2.5863212890625,-0.977783203125,-0.329833984375,0.0132598876953125
1760107125058387200,2.59638720703125,-0.970123291015625,-0.328704833984375,0.0162811279296875
1760107125068452000,2.6064521484375,-0.9541473388671875,-0.3291015625,0.0152740478515625
1760107125078518300,2.616518310546875,-0.9393768310546875,-0.334259033203125,0.0119171142578125
1760107125088584200,2.626584228515625,-0.9319000244140625,-0.3396759033203125,0.0131378173828125
1760107125098649300,2.6366494140625,-0.934417724609375,-0.340667724609375,0.0107421875
1760107125108715300,2.64671533203125,-0.9458770751953125,-0.3392486572265625,0.0027618408203125
1760107125118781400,2.656781494140625,-0.9579620361328125,-0.34002685546875,-0.003692626953125
1760107125128847000,2.66684716796875,-0.9672698974609375,-0.3373870849609375,-0.0009765625
1760107125138912300,2.676912353515625,-0.968109130859375,-0.3306732177734375,0.0038604736328125
1760107125148978200,2.686978271484375,-0.9691162109375,-0.326324462890625,0.00927734375
1760107125159044400,2.69704443359375,-0.967987060546875,-0.3261566162109375,0.0121307373046875
1760107125169109200,2.707109130859375,-0.967926025390625,-0.327850341796875,0.012603759765625
1760107125179175400,2.717175537109375,-0.9639892578125,-0.3297119140625,0.009307861328125
1760107125189241300,2.727241455078125,-0.9564971923828125,-0.3330230712890625,0.0065765380859375
1760107125199306200,2.73730615234375,-0.950347900390625,-0.33721923828125,0.0061492919921875
1760107125209372200,2.7473720703125,-0.941619873046875,-0.340057373046875,0.006103515625
1760107125219438300,2.757438232421875,-0.93560791015625,-0.3393707275390625,0.007720947265625
1760107125229503500,2.76750341796875,-0.93951416015625,-0.3368682861328125,0.0123748779296875
1760107125239569400,2.7775693359375,-0.9499969482421875,-0.33355712890625,0.017730712890625
1760107125249635600,2.787635498046875,-0.959747314453125,-0.32843017578125,0.0207366943359375
1760107125259700200,2.7977001953125,-0.9621124267578125,-0.325897216796875,0.02239990234375
1760107125269766400,2.807766357421875,-0.9602508544921875,-0.3269500732421875,0.0231475830078125
1760107125279832300,2.817832275390625,-0.9528656005859375,-0.329254150390625,0.020904541015625
1760107125289897500,2.8278974609375,-0.9478607177734375,-0.332000732421875,0.017974853515625
1760107125299963400,2.83796337890625,-0.9462738037109375,-0.3358001708984375,0.018585205078125
1760107125310029300,2.848029296875,-0.9536590576171875,-0.336669921875,0.020355224609375
1760107125320094500,2.858094482421875,-0.9599761962890625,-0.33184814453125,0.0209808349609375
1760107125330160400,2.868160400390625,-0.961029052734375,-0.32879638671875,0.020294189453125
1760107125340226300,2.878226318359375,-0.956573486328125,-0.329986572265625,0.017059326171875
1760107125350291200,2.888291259765625,-0.951019287109375,-0.336212158203125,0.0157318115234375
1760107125360357400,2.898357421875,-0.946990966796875,-0.3413848876953125,0.0137786865234375
1760107125370423300,2.90842333984375,-0.9438018798828125,-0.3406524658203125,0.011962890625
1760107125380488400,2.918488525390625,-0.9415130615234375,-0.3388519287109375,0.013031005859375
1760107125390554400,2.928554443359375,-0.9417572021484375,-0.3363037109375,0.0132293701171875
1760107125400620500,2.93862060546875,-0.9459991455078125,-0.33355712890625,0.016693115234375
1760107125410685200,2.948685302734375,-0.95196533203125,-0.3292388916015625,0.018310546875
1760107125420751400,2.95875146484375,-0.9560089111328125,-0.3283233642578125,0.0182037353515625
1760107125430817300,2.9688173828125,-0.956390380859375,-0.3334503173828125,0.0169219970703125
1760107125440882400,2.97888232421875,-0.9563140869140625,-0.33502197265625,0.0129852294921875
1760107125450948400,2.9889482421875,-0.950653076171875,-0.335052490234375,0.0103912353515625
1760107125461014300,2.99901416015625,-0.941986083984375,-0.3334503173828125,0.01300048828125
1760107125471079400,3.009079345703125,-0.936065673828125,-0.331573486328125,0.01617431640625
1760107125481145300,3.019145263671875,-0.937896728515625,-0.3312530517578125,0.01708984375
1760107125491211500,3.02921142578125,-0.9478302001953125,-0.3307037353515625,0.0177459716796875
1760107125501276200,3.039276123046875,-0.9570159912109375,-0.3318328857421875,0.0157470703125
1760107125511342300,3.04934228515625,-0.9636993408203125,-0.3325347900390625,0.011688232421875
1760107125521408300,3.059408203125,-0.9592132568359375,-0.3311920166015625,0.0093231201171875
1760107125531473400,3.069473388671875,-0.9497833251953125,-0.33258056640625,0.0117950439453125
1760107125541539300,3.079539306640625,-0.9426422119140625,-0.337860107421875,0.01409912109375
1760107125551605500,3.08960546875,-0.940826416015625,-0.341461181640625,0.0156707763671875
1760107125561670400,3.09967041015625,-0.9403076171875,-0.3414764404296875,0.0140228271484375
1760107125571736300,3.109736328125,-0.9421844482421875,-0.3411407470703125,0.015716552734375
1760107125581802500,3.119802490234375,-0.94580078125,-0.341644287109375,0.01483154296875
1760107125591867400,3.129867431640625,-0.9515228271484375,-0.3405303955078125,0.01580810546875
1760107125601933300,3.139933349609375,-0.9595489501953125,-0.335601806640625,0.014007568359375
1760107125611999200,3.149999267578125,-0.968658447265625,-0.3333282470703125,0.0105133056640625
1760107125622064400,3.160064453125,-0.96923828125,-0.3317108154296875,0.01531982421875
1760107125632130300,3.17013037109375,-0.966766357421875,-0.3306732177734375,0.018890380859375
1760107125642196500,3.180196533203125,-0.9613800048828125,-0.3278961181640625,0.023162841796875
1760107125652261400,3.190261474609375,-0.9591217041015625,-0.325592041015625,0.027923583984375
1760107125662327300,3.200327392578125,-0.9636383056640625,-0.3267364501953125,0.0294036865234375
1760107125672393200,3.210393310546875,-0.967071533203125,-0.3301544189453125,0.0261993408203125
1760107125682458400,3.220458251953125,-0.9663238525390625,-0.334503173828125,0.0203094482421875
1760107125692524500,3.230524658203125,-0.9561767578125,-0.3377532958984375,0.0140838623046875
1760107125702590500,3.240590576171875,-0.9447174072265625,-0.3424835205078125,0.0105438232421875
1760107125712655400,3.2506552734375,-0.937042236328125,-0.345306396484375,0.012298583984375
1760107125722721300,3.26072119140625,-0.9376373291015625,-0.343414306640625,0.014739990234375
1760107125732787500,3.270787353515625,-0.9472503662109375,-0.34063720703125,0.01312255859375
1760107125742852400,3.280852294921875,-0.9590911865234375,-0.3386688232421875,0.0117950439453125
1760107125752918300,3.290918212890625,-0.9661865234375,-0.337432861328125,0.007720947265625
1760107125762984200,3.300984130859375,-0.966156005859375,-0.33917236328125,0.0073699951171875
1760107125773049300,3.31104931640625,-0.9608917236328125,-0.3419342041015625,0.0146484375
1760107125783115300,3.321115234375,-0.9505767822265625,-0.3397369384765625,0.0184326171875
1760107125793181400,3.331181396484375,-0.9377593994140625,-0.3367919921875,0.0175933837890625
1760107125803246300,3.341246337890625,-0.9385986328125,-0.338897705078125,0.0156707763671875
1760107125813312300,3.351312255859375,-0.929901123046875,-0.3367462158203125,0.007659912109375
1760107125823378400,3.36137841796875,-0.924713134765625,-0.3400115966796875,0.0088348388671875
1760107125833443300,3.371443359375,-0.929656982421875,-0.3432769775390625,0.0125732421875
1760107125843509500,3.381509521484375,-0.9362945556640625,-0.3424224853515625,0.0099945068359375
1760107125853575400,3.391575439453125,-0.942138671875,-0.3411712646484375,0.01422119140625
1760107125863641300,3.401641357421875,-0.9449615478515625,-0.3401336669921875,0.0201873779296875
1760107125873706200,3.411706298828125,-0.9472198486328125,-0.33843994140625,0.023040771484375
1760107125883772400,3.4217724609375,-0.9510498046875,-0.336181640625,0.0175018310546875
1760107125893837600,3.431837646484375,-0.95458984375,-0.3358306884765625,0.012359619140625
1760107125903903200,3.4419033203125,-0.9555206298828125,-0.3355255126953125,0.006195068359375
1760107125913969200,3.45196923828125,-0.95599365234375,-0.3381500244140625,0.0019073486328125
1760107125924035300,3.462035400390625,-0.9509429931640625,-0.337738037109375,0.00140380859375
1760107125934100500,3.4721005859375,-0.951416015625,-0.338714599609375,0.009033203125
1760107125944166400,3.48216650390625,-0.959808349609375,-0.3407745361328125,0.01654052734375
1760107125954232600,3.492232666015625,-0.9575958251953125,-0.3364105224609375,0.016571044921875
1760107125964297200,3.502297119140625,-0.9463653564453125,-0.336181640625,0.012603759765625
1760107125974363400,3.51236328125,-0.9349365234375,-0.338134765625,0.009063720703125
1760107125984429300,3.52242919921875,-0.9230804443359375,-0.34088134765625,0.012481689453125
1760107125994494500,3.532494384765625,-0.92156982421875,-0.3468017578125,0.024322509765625
1760107126004560400,3.542560302734375,-0.927520751953125,-0.342254638671875,0.0268707275390625
1760107126014626300,3.552626220703125,-0.943450927734375,-0.333221435546875,0.0240936279296875
1760107126024691500,3.56269140625,-0.9650421142578125,-0.3287811279296875,0.0236053466796875
1760107126034757400,3.57275732421875,-0.98175048828125,-0.3263092041015625,0.02520751953125
1760107126044823300,3.5828232421875,-0.9868621826171875,-0.324859619140625,0.021759033203125
1760107126054888200,3.59288818359375,-0.980377197265625,-0.3248138427734375,0.02154541015625
1760107126064954400,3.602954345703125,-0.965484619140625,-0.3263702392578125,0.023040771484375
1760107126075020300,3.613020263671875,-0.9515380859375,-0.3331451416015625,0.0250244140625
1760107126085085400,3.62308544921875,-0.9490814208984375,-0.33843994140625,0.0252838134765625
1760107126095151400,3.6331513671875,-0.95294189453125,-0.3385162353515625,0.0184478759765625
1760107126105216300,3.64321630859375,-0.952056884765625,-0.336090087890625,0.0109100341796875
1760107126115282200,3.6532822265625,-0.9488067626953125,-0.3393402099609375,0.0116424560546875
1760107126125348400,3.663348388671875,-0.9434051513671875,-0.3405303955078125,0.015899658203125
1760107126135414300,3.673414306640625,-0.9383697509765625,-0.3394012451171875,0.01605224609375
1760107126145479400,3.6834794921875,-0.9478759765625,-0.33856201171875,0.0113525390625
1760107126155545600,3.693545654296875,-0.9676971435546875,-0.337493896484375,0.00714111328125
1760107126165610800,3.70361083984375,-0.9845733642578125,-0.3366546630859375,0.00592041015625
1760107126175677000,3.713677001953125,-0.9918365478515625,-0.3346099853515625,0.0076904296875
1760107126185742600,3.72374267578125,-0.9844207763671875,-0.3318328857421875,0.008941650390625
1760107126195807700,3.733807861328125,-0.961822509765625,-0.3290557861328125,0.0082550048828125
1760107126205873700,3.743873779296875,-0.9332427978515625,-0.3333892822265625,0.0108489990234375
1760107126215939800,3.75393994140625,-0.91375732421875,-0.3427276611328125,0.00946044921875
1760107126226004700,3.764004638671875,-0.911712646484375,-0.3473968505859375,0.0072021484375
1760107126236070700,3.774070556640625,-0.923004150390625,-0.346038818359375,0.001373291015625
1760107126246136600,3.784136474609375,-0.941986083984375,-0.3411407470703125,-0.00140380859375
1760107126256201700,3.79420166015625,-0.9639129638671875,-0.338134765625,0.003875732421875
1760107126266268000,3.804267822265625,-0.9780426025390625,-0.3349151611328125,0.0148773193359375
1760107126276333800,3.814333740234375,-0.9788818359375,-0.3310394287109375,0.020660400390625
1760107126286399700,3.824399658203125,-0.964324951171875,-0.3282470703125,0.0205078125
1760107126296464600,3.834464599609375,-0.944061279296875,-0.33380126953125,0.0166168212890625
1760107126306530800,3.84453076171875,-0.9306793212890625,-0.341522216796875,0.01434326171875
1760107126316595700,3.854595703125,-0.9308624267578125,-0.34613037109375,0.0103912353515625
1760107126326662000,3.864661865234375,-0.9413604736328125,-0.34649658203125,0.011871337890625
1760107126336727600,3.8747275390625,-0.95697021484375,-0.3409881591796875,0.0186004638671875
1760107126346792700,3.884792724609375,-0.9676361083984375,-0.335113525390625,0.0272979736328125
1760107126356858600,3.894858642578125,-0.975494384765625,-0.329620361328125,0.034332275390625
1760107126366924800,3.9049248046875,-0.9743194580078125,-0.326385498046875,0.0327301025390625
1760107126376990000,3.914989990234375,-0.9615325927734375,-0.3248748779296875,0.0252532958984375
1760107126387055600,3.9250556640625,-0.949554443359375,-0.331756591796875,0.0210113525390625
1760107126397121800,3.935121826171875,-0.94305419921875,-0.340545654296875,0.02117919921875
1760107126407186700,3.945186767578125,-0.9419097900390625,-0.342529296875,0.0205535888671875
1760107126417252900,3.9552529296875,-0.9434661865234375,-0.342681884765625,0.0178680419921875
1760107126427318800,3.96531884765625,-0.9455108642578125,-0.3442840576171875,0.017303466796875
1760107126437383700,3.9753837890625,-0.9472503662109375,-0.34619140625,0.017822265625
1760107126447449600,3.98544970703125,-0.9456634521484375,-0.3489990234375,0.0146636962890625
1760107126457515800,3.995515869140625,-0.9403228759765625,-0.3480682373046875,0.0107879638671875
1760107126467580700,4.00558056640625,-0.94110107421875,-0.345550537109375,0.0100250244140625
1760107126477646800,4.015646728515625,-0.95025634765625,-0.3445587158203125,0.0145416259765625
1760107126487712500,4.02571240234375,-0.9566650390625,-0.341522216796875,0.0162200927734375
1760107126497777700,4.035777587890625,-0.958984375,-0.3394012451171875,0.01470947265625
1760107126507843800,4.04584375,-0.9598541259765625,-0.340606689453125,0.0181121826171875
1760107126517909800,4.05590966796875,-0.956756591796875,-0.3407745361328125,0.0226593017578125
1760107126527975000,4.065974853515625,-0.9500732421875,-0.33880615234375,0.0253143310546875
1760107126538040600,4.07604052734375,-0.94110107421875,-0.339447021484375,0.0257110595703125
1760107126548106800,4.086106689453125,-0.9356689453125,-0.3390045166015625,0.0209197998046875
1760107126558171600,4.096171630859375,-0.9376220703125,-0.343597412109375,0.017486572265625
1760107126568237800,4.10623779296875,-0.94122314453125,-0.3457183837890625,0.01654052734375
1760107126578303700,4.1163037109375,-0.943878173828125,-0.3445587158203125,0.0166473388671875
1760107126588368600,4.12636865234375,-0.9530029296875,-0.3445892333984375,0.0167694091796875
1760107126598434600,4.1364345703125,-0.9598846435546875,-0.344970703125,0.015899658203125
1760107126608500700,4.146500732421875,-0.9576873779296875,-0.3417816162109375,0.0163421630859375
1760107126618566000,4.15656591796875,-0.9500732421875,-0.339630126953125,0.0189666748046875
1760107126628631800,4.1666318359375,-0.941162109375,-0.339599609375,0.02215576171875
1760107126638697700,4.17669775390625,-0.93560791015625,-0.3409271240234375,0.0251922607421875
1760107126648762600,4.1867626953125,-0.9373321533203125,-0.3437347412109375,0.0262603759765625
1760107126658828800,4.196828857421875,-0.94281005859375,-0.3454742431640625,0.0240478515625
1760107126668894700,4.206894775390625,-0.9481048583984375,-0.3466796875,0.023681640625
1760107126678959900,4.2169599609375,-0.950927734375,-0.34771728515625,0.02447509765625
1760107126689025500,4.227025634765625,-0.946014404296875,-0.3463897705078125,0.0222625732421875
1760107126699091700,4.237091796875,-0.940948486328125,-0.344573974609375,0.018341064453125
1760107126709156900,4.247156982421875,-0.94415283203125,-0.347015380859375,0.0165252685546875
1760107126719222800,4.257222900390625,-0.95098876953125,-0.3435516357421875,0.0185089111328125
1760107126729288700,4.267288818359375,-0.951385498046875,-0.337493896484375,0.0195159912109375
1760107126739353600,4.277353515625,-0.9480133056640625,-0.3371734619140625,0.025421142578125
1760107126749419800,4.287419677734375,-0.944549560546875,-0.3401031494140625,0.0355987548828125
1760107126759485700,4.297485595703125,-0.946563720703125,-0.3413848876953125,0.039337158203125
1760107126769550800,4.30755078125,-0.9486541748046875,-0.338531494140625,0.0358428955078125
1760107126779616800,4.31761669921875,-0.9450531005859375,-0.33984375,0.0308837890625
1760107126789682700,4.3276826171875,-0.939544677734375,-0.3425445556640625,0.02789306640625
1760107126799747600,4.33774755859375,-0.9341278076171875,-0.348602294921875,0.022705078125
1760107126809813800,4.347813720703125,-0.93023681640625,-0.3517913818359375,0.022552490234375
1760107126819879700,4.357879638671875,-0.932037353515625,-0.351470947265625,0.023406982421875
1760107126829944800,4.36794482421875,-0.939910888671875,-0.350921630859375,0.0271453857421875
1760107126840010800,4.3780107421875,-0.9534149169921875,-0.3478240966796875,0.032012939453125
1760107126850076700,4.38807666015625,-0.962158203125,-0.3406829833984375,0.0313568115234375
1760107126860141800,4.398141845703125,-0.965240478515625,-0.3372955322265625,0.024169921875
1760107126870207700,4.408207763671875,-0.9639434814453125,-0.339691162109375,0.01898193359375
1760107126880274000,4.41827392578125,-0.9550323486328125,-0.3423309326171875,0.01763916015625
1760107126890338600,4.428338623046875,-0.9454498291015625,-0.3473052978515625,0.0196685791015625
1760107126900404700,4.43840478515625,-0.9334716796875,-0.348907470703125,0.02215576171875
1760107126910470000,4.448469970703125,-0.928985595703125,-0.3489837646484375,0.0255584716796875
1760107126920535800,4.458535888671875,-0.93115234375,-0.347381591796875,0.0316009521484375
1760107126930601700,4.468601806640625,-0.9367218017578125,-0.34466552734375,0.0347747802734375
1760107126940666600,4.47866650390625,-0.94000244140625,-0.3414764404296875,0.0334930419921875
1760107126950732800,4.48873291015625,-0.9464111328125,-0.3408203125,0.0326995849609375
1760107126960798700,4.498798828125,-0.9521942138671875,-0.3411407470703125,0.0308990478515625
1760107126970863900,4.50886376953125,-0.953460693359375,-0.339263916015625,0.0236663818359375
1760107126980929500,4.518929443359375,-0.9476165771484375,-0.3361663818359375,0.0192108154296875
1760107126990995700,4.52899560546875,-0.9411163330078125,-0.3368377685546875,0.0244598388671875
1760107127001060600,4.539060546875,-0.93487548828125,-0.338653564453125,0.0316162109375
1760107127011126800,4.549126708984375,-0.9328765869140625,-0.3394622802734375,0.032928466796875
1760107127021192700,4.559192626953125,-0.9380340576171875,-0.3393096923828125,0.026763916015625
1760107127031257600,4.569257568359375,-0.9460601806640625,-0.3452301025390625,0.01483154296875
1760107127041323800,4.57932373046875,-0.9494476318359375,-0.3515472412109375,0.0002899169921875
1760107127051389700,4.5893896484375,-0.948455810546875,-0.35821533203125,-0.0040283203125
1760107127061454800,4.599454833984375,-0.942840576171875,-0.360443115234375,-0.0047149658203125
1760107127071520800,4.609520751953125,-0.9388885498046875,-0.35601806640625,0.000518798828125
1760107127081587000,4.6195869140625,-0.9413604736328125,-0.3500823974609375,0.01153564453125
1760107127091651600,4.629651611328125,-0.9517974853515625,-0.3443756103515625,0.017333984375
1760107127101717800,4.6397177734375,-0.964752197265625,-0.3402099609375,0.0190277099609375
1760107127111783700,4.64978369140625,-0.9754791259765625,-0.337127685546875,0.019378662109375
1760107127121848800,4.659848876953125,-0.981201171875,-0.3347320556640625,0.018341064453125
1760107127131914500,4.66991455078125,-0.9824676513671875,-0.3347320556640625,0.021270751953125
1760107127141980700,4.679980712890625,-0.9798736572265625,-0.3345794677734375,0.02288818359375
1760107127152045800,4.6900458984375,-0.9759063720703125,-0.3384552001953125,0.0264892578125
1760107127162111700,4.70011181640625,-0.966552734375,-0.3413238525390625,0.0258941650390625
1760107127172177700,4.710177734375,-0.9534912109375,-0.3423614501953125,0.0247039794921875
1760107127182242800,4.720242919921875,-0.93975830078125,-0.34552001953125,0.021087646484375
1760107127192309000,4.73030908203125,-0.932159423828125,-0.3493194580078125,0.0173797607421875
1760107127202375000,4.740375,-0.9290313720703125,-0.3499298095703125,0.017303466796875
1760107127212439800,4.750439697265625,-0.9296875,-0.3467559814453125,0.019927978515625
1760107127222505700,4.760505615234375,-0.9386444091796875,-0.342071533203125,0.0218353271484375
1760107127232572000,4.770572021484375,-0.949127197265625,-0.3382110595703125,0.024078369140625
1760107127242636800,4.78063671875,-0.9579315185546875,-0.3350677490234375,0.023712158203125
1760107127252703000,4.790702880859375,-0.9560089111328125,-0.3324737548828125,0.0230560302734375
1760107127262767900,4.800767822265625,-0.9517822265625,-0.334442138671875,0.0232391357421875
1760107127272833800,4.810833740234375,-0.9468994140625,-0.3394927978515625,0.021697998046875
1760107127282900000,4.82089990234375,-0.9410858154296875,-0.3433837890625,0.0177001953125
1760107127292964900,4.83096484375,-0.934234619140625,-0.34588623046875,0.0150909423828125
1760107127303031000,4.841031005859375,-0.924102783203125,-0.345916748046875,0.0164337158203125
1760107127313096700,4.8510966796875,-0.917236328125,-0.348236083984375,0.021270751953125
1760107127323161900,4.861161865234375,-0.923004150390625,-0.3518218994140625,0.0254058837890625
1760107127333227800,4.871227783203125,-0.941497802734375,-0.350921630859375,0.0249481201171875
1760107127343294000,4.8812939453125,-0.966522216796875,-0.34466552734375,0.0184173583984375
1760107127353358800,4.89135888671875,-0.98602294921875,-0.3389739990234375,0.0184783935546875
1760107127363424800,4.9014248046875,-0.9911346435546875,-0.3339691162109375,0.0240631103515625
1760107127373490700,4.91149072265625,-0.9822540283203125,-0.3319091796875,0.0306549072265625
1760107127383555800,4.921555908203125,-0.96771240234375,-0.3365478515625,0.0334930419921875
1760107127393622000,4.9316220703125,-0.9590911865234375,-0.3436737060546875,0.03216552734375
1760107127403688000,4.94168798828125,-0.9525146484375,-0.348907470703125,0.0259552001953125
1760107127413752800,4.9517529296875,-0.9488372802734375,-0.3512725830078125,0.01617431640625
1760107127423818800,4.96181884765625,-0.9440155029296875,-0.3525390625,0.01318359375
1760107127433885000,4.971885009765625,-0.9415740966796875,-0.353515625,0.0120849609375
1760107127443949800,4.98194970703125,-0.939453125,-0.352020263671875,0.01434326171875
1760107127454016000,4.99201611328125,-0.9384918212890625,-0.346771240234375,0.01446533203125
1760107127464081700,5.00208154296875,-0.93927001953125,-0.345184326171875,0.015289306640625
1760107127474146800,5.012146728515625,-0.94049072265625,-0.34490966796875,0.01910400390625
1760107127484213000,5.022212890625,-0.94573974609375,-0.3428497314453125,0.0200042724609375
1760107127494279000,5.03227880859375,-0.949615478515625,-0.342498779296875,0.021026611328125
1760107127504343800,5.04234375,-0.942047119140625,-0.340118408203125,0.0217132568359375
1760107127514409700,5.05240966796875,-0.9431915283203125,-0.33905029296875,0.02752685546875
1760107127524476000,5.062475830078125,-0.939483642578125,-0.3391876220703125,0.029754638671875
1760107127534540800,5.072540771484375,-0.932220458984375,-0.3384857177734375,0.0283203125
1760107127544607000,5.08260693359375,-0.9300079345703125,-0.3394775390625,0.02862548828125
1760107127554671900,5.092671875,-0.93096923828125,-0.3428497314453125,0.0252227783203125
1760107127564737800,5.10273779296875,-0.9369964599609375,-0.345123291015625,0.0203857421875
1760107127574803700,5.1128037109375,-0.9441375732421875,-0.3449554443359375,0.0187835693359375
1760107127584868900,5.122868896484375,-0.9518585205078125,-0.3435821533203125,0.0213470458984375
1760107127594935000,5.13293505859375,-0.957763671875,-0.342315673828125,0.02508544921875
1760107127605001000,5.1430009765625,-0.9634246826171875,-0.3427734375,0.0232391357421875
1760107127615065900,5.15306591796875,-0.9680328369140625,-0.3458709716796875,0.0157470703125
1760107127625131800,5.1631318359375,-0.969573974609375,-0.348663330078125,0.0141754150390625
1760107127635198000,5.173197998046875,-0.96563720703125,-0.34967041015625,0.0189056396484375
1760107127645262800,5.183262939453125,-0.9623565673828125,-0.3512725830078125,0.0224761962890625
1760107127655328800,5.193328857421875,-0.9568634033203125,-0.3507080078125,0.022674560546875
1760107127665394700,5.203394775390625,-0.9521942138671875,-0.3504180908203125,0.0232391357421875
1760107127675459800,5.2134599609375,-0.94879150390625,-0.3531341552734375,0.0305328369140625
1760107127685526000,5.223526123046875,-0.951141357421875,-0.3503875732421875,0.0363311767578125
1760107127695592000,5.233592041015625,-0.954071044921875,-0.342987060546875,0.033416748046875
1760107127705656800,5.24365673828125,-0.953399658203125,-0.340240478515625,0.02642822265625
1760107127715722800,5.25372265625,-0.9486236572265625,-0.345123291015625,0.0225830078125
1760107127725789000,5.263788818359375,-0.9429931640625,-0.3482513427734375,0.0193634033203125
1760107127735853800,5.273853759765625,-0.93255615234375,-0.348236083984375,0.016937255859375
1760107127745920000,5.283919921875,-0.9265289306640625,-0.34771728515625,0.01800537109375
1760107127755986000,5.29398583984375,-0.9290008544921875,-0.344146728515625,0.0229644775390625
1760107127766050800,5.30405078125,-0.930755615234375,-0.3377838134765625,0.0303955078125
1760107127776116700,5.31411669921875,-0.936767578125,-0.3355560302734375,0.03900146484375
1760107127786183000,5.324182861328125,-0.9422149658203125,-0.3344573974609375,0.040863037109375
1760107127796248000,5.334248046875,-0.9421539306640625,-0.3374481201171875,0.0321044921875
1760107127806313700,5.344313720703125,-0.9369354248046875,-0.343536376953125,0.0218048095703125
1760107127816379000,5.35437890625,-0.924346923828125,-0.3480682373046875,0.0144195556640625
1760107127826444800,5.36444482421875,-0.914794921875,-0.35205078125,0.0128021240234375
1760107127836511000,5.374510986328125,-0.923095703125,-0.3551025390625,0.018218994140625
1760107127846575900,5.384575927734375,-0.9427490234375,-0.352325439453125,0.026275634765625
1760107127856641800,5.394641845703125,-0.961883544921875,-0.3486480712890625,0.022979736328125
1760107127866707700,5.404707763671875,-0.9681396484375,-0.34375,0.022064208984375
1760107127876772900,5.41477294921875,-0.9745330810546875,-0.3442230224609375,0.028472900390625
1760107127886839000,5.424839111328125,-0.98284912109375,-0.34808349609375,0.033782958984375
1760107127896905000,5.434905029296875,-0.982635498046875,-0.3418426513671875,0.0326995849609375
1760107127906969900,5.444969970703125,-0.9757537841796875,-0.3354949951171875,0.0289306640625
1760107127917035800,5.455035888671875,-0.958343505859375,-0.3371429443359375,0.02911376953125
1760107127927102000,5.46510205078125,-0.9420013427734375,-0.3430938720703125,0.0294189453125
1760107127937166800,5.475166748046875,-0.9334259033203125,-0.3479156494140625,0.026763916015625
1760107127947233000,5.48523291015625,-0.935516357421875,-0.353302001953125,0.0260009765625
1760107127957298700,5.495298583984375,-0.9435577392578125,-0.35089111328125,0.0265350341796875
1760107127967363800,5.50536376953125,-0.9550628662109375,-0.34588623046875,0.0240631103515625
1760107127977429800,5.5154296875,-0.9693756103515625,-0.34295654296875,0.027313232421875
1760107127987496000,5.525495849609375,-0.9774017333984375,-0.341888427734375,0.02783203125
1760107127997560800,5.535560791015625,-0.9762725830078125,-0.33929443359375,0.027313232421875
1760107128007626800,5.545626708984375,-0.9618377685546875,-0.33660888671875,0.0248260498046875
1760107128017692000,5.55569189453125,-0.947845458984375,-0.3412017822265625,0.0226287841796875
1760107128027757800,5.5657578125,-0.9364166259765625,-0.345977783203125,0.0257110595703125
1760107128037824000,5.575823974609375,-0.9302215576171875,-0.347076416015625,0.02386474609375
1760107128047888600,5.585888671875,-0.933624267578125,-0.345458984375,0.021209716796875
1760107128057954800,5.595954833984375,-0.9452362060546875,-0.3472442626953125,0.01947021484375
1760107128068020700,5.606020751953125,-0.957122802734375,-0.34942626953125,0.0218048095703125
1760107128078086000,5.6160859375,-0.957122802734375,-0.34857177734375,0.0227813720703125
1760107128088151800,5.62615185546875,-0.950103759765625,-0.3486785888671875,0.02484130859375
1760107128098218000,5.636218017578125,-0.9441986083984375,-0.3484039306640625,0.0271453857421875
1760107128108283000,5.646282958984375,-0.9395599365234375,-0.3469085693359375,0.031341552734375
1760107128118348800,5.656348876953125,-0.9325408935546875,-0.3444976806640625,0.0324859619140625
1760107128128415000,5.6664150390625,-0.9253082275390625,-0.3447723388671875,0.0324859619140625
1760107128138479900,5.67647998046875,-0.9263763427734375,-0.3477935791015625,0.031585693359375
1760107128148545800,5.6865458984375,-0.9312896728515625,-0.35003662109375,0.029541015625
1760107128158611000,5.69661083984375,-0.938720703125,-0.3471221923828125,0.0269012451171875
1760107128168675800,5.70667578125,-0.947998046875,-0.3457489013671875,0.026763916015625
1760107128178742000,5.716741943359375,-0.9533538818359375,-0.34381103515625,0.029327392578125
1760107128188808000,5.726807861328125,-0.9501495361328125,-0.342376708984375,0.0342864990234375
1760107128198873000,5.736873046875,-0.94342041015625,-0.342437744140625,0.0393524169921875
1760107128208939000,5.74693896484375,-0.9334716796875,-0.345184326171875,0.038848876953125
1760107128219004000,5.75700390625,-0.9216461181640625,-0.34735107421875,0.0351104736328125
1760107128229069800,5.76706982421875,-0.913726806640625,-0.3505401611328125,0.0337371826171875
1760107128239136000,5.777135986328125,-0.914642333984375,-0.3498992919921875,0.029022216796875
1760107128249201200,5.787201171875,-0.9222564697265625,-0.348388671875,0.02398681640625
1760107128259267000,5.79726708984375,-0.93621826171875,-0.3496246337890625,0.0231781005859375
1760107128269333000,5.8073330078125,-0.9477081298828125,-0.34954833984375,0.02996826171875
1760107128279398000,5.81739794921875,-0.9554595947265625,-0.3464813232421875,0.0357818603515625
1760107128289464000,5.827464111328125,-0.957763671875,-0.3409423828125,0.0384368896484375
1760107128299530000,5.837530029296875,-0.953887939453125,-0.33905029296875,0.0398101806640625
1760107128309595000,5.847594970703125,-0.9492950439453125,-0.3407745361328125,0.0406341552734375
1760107128319660800,5.857660888671875,-0.94769287109375,-0.342498779296875,0.0384063720703125
1760107128329727000,5.86772705078125,-0.9485321044921875,-0.34466552734375,0.0311279296875
1760107128339792100,5.877792236328125,-0.9510345458984375,-0.3480224609375,0.02606201171875
1760107128349858000,5.887858154296875,-0.957275390625,-0.349395751953125,0.0261077880859375
1760107128359923000,5.8979228515625,-0.9603729248046875,-0.3494415283203125,0.0274658203125
1760107128369988900,5.90798876953125,-0.955810546875,-0.347869873046875,0.0303497314453125
1760107128380055000,5.918054931640625,-0.951141357421875,-0.346527099609375,0.034271240234375
1760107128390120000,5.928119873046875,-0.95086669921875,-0.345977783203125,0.0386810302734375
1760107128400186000,5.93818603515625,-0.95599365234375,-0.34368896484375,0.0363311767578125
1760107128410252000,5.948251953125,-0.9642791748046875,-0.34173583984375,0.0342254638671875
1760107128420317000,5.95831689453125,-0.9651947021484375,-0.3410491943359375,0.029510498046875
1760107128430382800,5.9683828125,-0.9586181640625,-0.3425140380859375,0.025299072265625
1760107128440449000,5.978448974609375,-0.9481353759765625,-0.3428955078125,0.0278167724609375
1760107128450514200,5.98851416015625,-0.9364471435546875,-0.3422698974609375,0.02984619140625
1760107128460579800,5.998579833984375,-0.9338836669921875,-0.346282958984375,0.0328521728515625
1760107128470646000,6.00864599609375,-0.9459686279296875,-0.349578857421875,0.0369415283203125
1760107128480711000,6.0187109375,-0.9566497802734375,-0.3437957763671875,0.0338897705078125
1760107128490777000,6.028777099609375,-0.96343994140625,-0.3370361328125,0.0256195068359375
1760107128500843000,6.038843017578125,-0.960693359375,-0.3377685546875,0.021759033203125
1760107128510908000,6.048907958984375,-0.9506072998046875,-0.343353271484375,0.0227813720703125
1760107128520973800,6.058973876953125,-0.942718505859375,-0.34869384765625,0.0282440185546875
1760107128531040000,6.0690400390625,-0.9354095458984375,-0.34600830078125,0.0284881591796875
1760107128541105200,6.079105224609375,-0.9330596923828125,-0.342864990234375,0.0306549072265625
1760107128551171000,6.089171142578125,-0.937591552734375,-0.3436737060546875,0.0354156494140625
1760107128561236000,6.099236083984375,-0.9439239501953125,-0.345428466796875,0.0382537841796875
1760107128571302000,6.109302001953125,-0.9456939697265625,-0.3425445556640625,0.03802490234375
1760107128581368000,6.1193681640625,-0.9445648193359375,-0.34283447265625,0.0324859619140625
1760107128591433000,6.129432861328125,-0.9449310302734375,-0.3458709716796875,0.0307159423828125
1760107128601499100,6.1394990234375,-0.9424896240234375,-0.348602294921875,0.0322265625
1760107128611564800,6.149564697265625,-0.9404449462890625,-0.3493499755859375,0.0313262939453125
1760107128621630000,6.1596298828125,-0.9391326904296875,-0.3486175537109375,0.029327392578125
1760107128631696000,6.16969580078125,-0.9394378662109375,-0.3483734130859375,0.0280914306640625
1760107128641762000,6.179761962890625,-0.9405517578125,-0.3477630615234375,0.03369140625
1760107128651827200,6.1898271484375,-0.950531005859375,-0.34600830078125,0.035919189453125
1760107128661892900,6.199892822265625,-0.961517333984375,-0.34466552734375,0.03192138671875
1760107128671959000,6.209958984375,-0.97003173828125,-0.3447418212890625,0.029052734375
1760107128682024000,6.22002392578125,-0.9708709716796875,-0.3432769775390625,0.0297088623046875
1760107128692090000,6.230090087890625,-0.96368408203125,-0.3416748046875,0.0322113037109375
1760107128702154800,6.24015478515625,-0.955291748046875,-0.3402557373046875,0.036529541015625
1760107128712221000,6.250220947265625,-0.946044921875,-0.3400726318359375,0.0378570556640625
1760107128722286800,6.260286865234375,-0.9371185302734375,-0.3392333984375,0.033172607421875
1760107128732352000,6.27035205078125,-0.93572998046875,-0.3416290283203125,0.0277862548828125
1760107128742418200,6.280418212890625,-0.9414825439453125,-0.346649169921875,0.02178955078125
1760107128752484000,6.290484130859375,-0.9464111328125,-0.34796142578125,0.020477294921875
1760107128762549000,6.300549072265625,-0.9501495361328125,-0.3474578857421875,0.0229034423828125
1760107128772615000,6.310614990234375,-0.95416259765625,-0.3465576171875,0.0239410400390625
1760107128782681000,6.32068115234375,-0.958709716796875,-0.347442626953125,0.0240020751953125
1760107128792746000,6.33074609375,-0.957611083984375,-0.346435546875,0.024993896484375
1760107128802812200,6.340812255859375,-0.9529571533203125,-0.34619140625,0.023834228515625
1760107128812877800,6.3508779296875,-0.9527740478515625,-0.3457794189453125,0.02716064453125
1760107128822943000,6.36094287109375,-0.9494781494140625,-0.34283447265625,0.031280517578125
1760107128833009000,6.3710087890625,-0.9439697265625,-0.3406829833984375,0.0348663330078125
1760107128843074000,6.381073974609375,-0.9428863525390625,-0.344207763671875,0.036346435546875
1760107128853140000,6.391139892578125,-0.9449310302734375,-0.3468475341796875,0.03192138671875
1760107128863206000,6.401205810546875,-0.95123291015625,-0.3489227294921875,0.0225067138671875
1760107128873271000,6.41127099609375,-0.954925537109375,-0.3513336181640625,0.019439697265625
1760107128883337000,6.4213369140625,-0.9521484375,-0.3497772216796875,0.0192718505859375
1760107128893403100,6.431403076171875,-0.943389892578125,-0.3492279052734375,0.021575927734375
1760107128903467800,6.4414677734375,-0.9368438720703125,-0.351104736328125,0.021636962890625
1760107128913534000,6.451533935546875,-0.937286376953125,-0.3519744873046875,0.023406982421875
1760107128923600000,6.461599853515625,-0.9404144287109375,-0.34967041015625,0.0247344970703125
1760107128933665000,6.4716650390625,-0.94525146484375,-0.3460845947265625,0.0282440185546875
1760107128943731000,6.48173095703125,-0.951263427734375,-0.343719482421875,0.0341033935546875
1760107128953796900,6.491796875,-0.9535064697265625,-0.3430938720703125,0.0393218994140625
1760107128963862000,6.501862060546875,-0.949920654296875,-0.342315673828125,0.04046630859375
1760107128973928000,6.511927978515625,-0.9439544677734375,-0.34271240234375,0.0383758544921875
1760107128983993000,6.5219931640625,-0.9380950927734375,-0.342864990234375,0.034698486328125
1760107128994059000,6.53205908203125,-0.9334869384765625,-0.3443450927734375,0.0289459228515625
1760107129004125000,6.542125,-0.9368896484375,-0.347930908203125,0.0264434814453125
1760107129014190000,6.552190185546875,-0.9414215087890625,-0.3480072021484375,0.0279541015625
1760107129024256000,6.562256103515625,-0.9458160400390625,-0.343292236328125,0.0303955078125
1760107129034322000,6.572322021484375,-0.9483795166015625,-0.3396453857421875,0.0334320068359375
1760107129044386800,6.58238671875,-0.9454498291015625,-0.3376007080078125,0.0336151123046875
1760107129054453000,6.592452880859375,-0.9456329345703125,-0.3427886962890625,0.03271484375
1760107129064519000,6.602518798828125,-0.9527435302734375,-0.348968505859375,0.0347747802734375
1760107129074584000,6.612583984375,-0.956695556640625,-0.3479461669921875,0.030120849609375
1760107129084650000,6.62264990234375,-0.9542083740234375,-0.344512939453125,0.027557373046875
1760107129094716200,6.632716064453125,-0.950714111328125,-0.3449554443359375,0.03070068359375
1760107129104780800,6.64278076171875,-0.9475860595703125,-0.3450469970703125,0.03436279296875
1760107129114847000,6.652846923828125,-0.9427490234375,-0.3439178466796875,0.033538818359375
1760107129124912000,6.662912109375,-0.939361572265625,-0.34442138671875,0.0311431884765625
1760107129134978000,6.67297802734375,-0.93988037109375,-0.34820556640625,0.0278167724609375
1760107129145044000,6.6830439453125,-0.9430694580078125,-0.3515472412109375,0.0248565673828125
1760107129155108900,6.69310888671875,-0.9483184814453125,-0.350982666015625,0.0221710205078125
1760107129165175600,6.703175537109375,-0.9526214599609375,-0.34771728515625,0.0240325927734375
1760107129175241500,6.713241455078125,-0.956390380859375,-0.346343994140625,0.029296875
1760107129185306400,6.723306396484375,-0.9572906494140625,-0.345062255859375,0.032470703125
1760107129195372300,6.733372314453125,-0.9568023681640625,-0.3450164794921875,0.0351104736328125
1760107129205438500,6.7434384765625,-0.955718994140625,-0.3434600830078125,0.03289794921875
1760107129215503400,6.75350341796875,-0.9510498046875,-0.3441925048828125,0.023956298828125
1760107129225569300,6.7635693359375,-0.9441680908203125,-0.3489990234375,0.0213470458984375
1760107129235634400,6.773634521484375,-0.9378204345703125,-0.351593017578125,0.0255126953125
1760107129245700400,6.783700439453125,-0.9388580322265625,-0.348724365234375,0.0341339111328125
1760107129255766300,6.793766357421875,-0.9441680908203125,-0.342071533203125,0.0372772216796875
1760107129265831400,6.80383154296875,-0.944732666015625,-0.339385986328125,0.034759521484375
1760107129275897300,6.8138974609375,-0.9409332275390625,-0.34765625,0.025360107421875
1760107129285963300,6.82396337890625,-0.9391937255859375,-0.35479736328125,0.015533447265625
1760107129296028400,6.8340283203125,-0.94317626953125,-0.3567657470703125,0.0126190185546875
1760107129306094300,6.84409423828125,-0.9490203857421875,-0.3502044677734375,0.0192108154296875
1760107129316160500,6.854160400390625,-0.95892333984375,-0.3410491943359375,0.028106689453125
1760107129326225400,6.864225341796875,-0.961029052734375,-0.3387603759765625,0.0331268310546875
1760107129336291300,6.874291259765625,-0.9575958251953125,-0.341796875,0.03265380859375
1760107129346357200,6.884357177734375,-0.948944091796875,-0.34820556640625,0.0299224853515625
1760107129356422400,6.89442236328125,-0.939727783203125,-0.3544769287109375,0.0296173095703125
1760107129366488600,6.904488525390625,-0.9332733154296875,-0.354248046875,0.0318756103515625
1760107129376553200,6.91455322265625,-0.9279937744140625,-0.34881591796875,0.029541015625
1760107129386619400,6.924619384765625,-0.9287567138671875,-0.3467864990234375,0.0260467529296875
1760107129396685300,6.934685302734375,-0.9377593994140625,-0.3477935791015625,0.023590087890625
1760107129406750500,6.94475048828125,-0.950775146484375,-0.3488616943359375,0.020416259765625
1760107129416816400,6.95481640625,-0.95843505859375,-0.3468170166015625,0.01934814453125
1760107129426882300,6.96488232421875,-0.959930419921875,-0.34259033203125,0.0210723876953125
1760107129436947500,6.974947509765625,-0.9583740234375,-0.343048095703125,0.027313232421875
1760107129447013400,6.985013427734375,-0.954986572265625,-0.345367431640625,0.0302886962890625
1760107129457079300,6.995079345703125,-0.946380615234375,-0.34613037109375,0.02911376953125
1760107129467144200,7.005144287109375,-0.94134521484375,-0.3486480712890625,0.0247650146484375
1760107129477210400,7.01521044921875,-0.9409637451171875,-0.35107421875,0.0215301513671875
1760107129487275300,7.025275146484375,-0.9395294189453125,-0.350128173828125,0.0234832763671875
1760107129497341400,7.035341552734375,-0.9343719482421875,-0.3457183837890625,0.0291900634765625
1760107129507407400,7.045407470703125,-0.9293212890625,-0.344085693359375,0.0318450927734375
1760107129517472300,7.05547216796875,-0.9293060302734375,-0.347503662109375,0.0316619873046875
1760107129527538200,7.0655380859375,-0.9359130859375,-0.3504180908203125,0.0286865234375
1760107129537604400,7.075604248046875,-0.9444122314453125,-0.3504638671875,0.0253143310546875
1760107129547669500,7.08566943359375,-0.956817626953125,-0.3467559814453125,0.024932861328125
1760107129557735400,7.0957353515625,-0.96575927734375,-0.3411102294921875,0.0283050537109375
1760107129567801600,7.105801513671875,-0.9650421142578125,-0.336578369140625,0.03326416015625
1760107129577866200,7.1158662109375,-0.9554901123046875,-0.3358001708984375,0.037445068359375
1760107129587932400,7.125932373046875,-0.9406585693359375,-0.3362274169921875,0.036285400390625
1760107129597997300,7.135997314453125,-0.9275970458984375,-0.337066650390625,0.0280914306640625
1760107129608063500,7.1460634765625,-0.9200592041015625,-0.3426361083984375,0.0196685791015625
1760107129618129200,7.156129150390625,-0.9196624755859375,-0.3493194580078125,0.0162506103515625
1760107129628194300,7.1661943359375,-0.9257049560546875,-0.3532257080078125,0.0167236328125
1760107129638260500,7.176260498046875,-0.9363555908203125,-0.3553466796875,0.022735595703125
1760107129648326400,7.186326416015625,-0.9496612548828125,-0.3515625,0.0259246826171875
1760107129658391600,7.1963916015625,-0.958160400390625,-0.34637451171875,0.0248870849609375
1760107129668457200,7.206457275390625,-0.9582366943359375,-0.346160888671875,0.022674560546875
1760107129678523400,7.2165234375,-0.9561004638671875,-0.350555419921875,0.0239715576171875
1760107129688588300,7.22658837890625,-0.952789306640625,-0.35125732421875,0.0257720947265625
1760107129698654500,7.236654541015625,-0.9505157470703125,-0.3481597900390625,0.0234222412109375
1760107129708719400,7.24671923828125,-0.9533538818359375,-0.3467559814453125,0.0247344970703125
1760107129718785300,7.256785400390625,-0.96319580078125,-0.346893310546875,0.0261077880859375
1760107129728851200,7.266851318359375,-0.974945068359375,-0.3448638916015625,0.024932861328125
1760107129738916400,7.276916259765625,-0.98193359375,-0.3425445556640625,0.0242156982421875
1760107129748982500,7.286982421875,-0.9780120849609375,-0.3402862548828125,0.02496337890625
1760107129759048400,7.29704833984375,-0.969879150390625,-0.339935302734375,0.024871826171875
1760107129769113300,7.30711328125,-0.957672119140625,-0.34283447265625,0.0231781005859375
1760107129779179300,7.31717919921875,-0.9460906982421875,-0.344451904296875,0.0196990966796875
1760107129789245400,7.327245361328125,-0.9389801025390625,-0.34735107421875,0.013885498046875
1760107129799310300,7.337310302734375,-0.9345703125,-0.347686767578125,0.00885009765625
1760107129809376300,7.347376220703125,-0.9353485107421875,-0.34857177734375,0.010467529296875
1760107129819441400,7.35744140625,-0.943084716796875,-0.3494720458984375,0.0153656005859375
1760107129829507300,7.36750732421875,-0.95098876953125,-0.34637451171875,0.0192413330078125
1760107129839573500,7.377573486328125,-0.9530792236328125,-0.3444976806640625,0.0201873779296875
1760107129849638400,7.387638427734375,-0.9506378173828125,-0.3425750732421875,0.0203094482421875
1760107129859704300,7.397704345703125,-0.94659423828125,-0.3420562744140625,0.0215911865234375
1760107129869770200,7.407770263671875,-0.9485015869140625,-0.3422088623046875,0.0209197998046875
1760107129879835400,7.41783544921875,-0.9530029296875,-0.34307861328125,0.021087646484375
1760107129889901300,7.4279013671875,-0.9547119140625,-0.341156005859375,0.0242462158203125
1760107129899967500,7.437967529296875,-0.95318603515625,-0.3409423828125,0.0293731689453125
1760107129910032400,7.448032470703125,-0.9451446533203125,-0.342529296875,0.0322723388671875
1760107129920098300,7.458098388671875,-0.9439849853515625,-0.3449249267578125,0.036102294921875
1760107129930163500,7.46816357421875,-0.9462890625,-0.3434295654296875,0.0361328125
1760107129940229400,7.4782294921875,-0.9514007568359375,-0.3396453857421875,0.0340728759765625
1760107129950295600,7.488295654296875,-0.9591827392578125,-0.3387298583984375,0.032440185546875
1760107129960360200,7.498360107421875,-0.9605865478515625,-0.338348388671875,0.0317840576171875
1760107129970426400,7.50842626953125,-0.953765869140625,-0.33807373046875,0.0312347412109375
1760107129980492300,7.5184921875,-0.9451141357421875,-0.339813232421875,0.028076171875
1760107129990557400,7.528557373046875,-0.941802978515625,-0.3460540771484375,0.02301025390625
1760107130000623400,7.538623291015625,-0.9378662109375,-0.3516387939453125,0.0208740234375
1760107130010688300,7.548688232421875,-0.938018798828125,-0.3528289794921875,0.020538330078125
1760107130020754400,7.55875439453125,-0.94439697265625,-0.3492279052734375,0.0275115966796875
1760107130030820400,7.5688203125,-0.9520263671875,-0.3434906005859375,0.0306854248046875
1760107130040885500,7.578885498046875,-0.9552764892578125,-0.3397369384765625,0.030181884765625
1760107130050951200,7.588951171875,-0.9473876953125,-0.3388824462890625,0.0284271240234375
1760107130061017300,7.599017333984375,-0.933380126953125,-0.3469390869140625,0.0265960693359375
1760107130071082200,7.609082275390625,-0.92779541015625,-0.3540802001953125,0.0284576416015625
1760107130081148400,7.6191484375,-0.9292144775390625,-0.3518524169921875,0.023895263671875
1760107130091214300,7.62921435546875,-0.931671142578125,-0.3490142822265625,0.020233154296875
1760107130101279200,7.639279296875,-0.9455108642578125,-0.3480224609375,0.0279693603515625
1760107130111345400,7.649345458984375,-0.9541473388671875,-0.34228515625,0.0347442626953125
1760107130121410300,7.659410400390625,-0.956024169921875,-0.3363037109375,0.0360107421875
1760107130131476500,7.6694765625,-0.9562225341796875,-0.3368377685546875,0.033416748046875
1760107130141542400,7.67954248046875,-0.9522705078125,-0.341339111328125,0.0326995849609375
1760107130151607300,7.689607177734375,-0.94940185546875,-0.3456878662109375,0.0301055908203125
1760107130161673000,7.6996728515625,-0.9459228515625,-0.3458404541015625,0.0258026123046875
1760107130171739100,7.7097392578125,-0.9445648193359375,-0.3451690673828125,0.02569580078125
1760107130181804300,7.71980419921875,-0.9453125,-0.34686279296875,0.0294952392578125
1760107130191870200,7.7298701171875,-0.9467926025390625,-0.3466033935546875,0.0328369140625
1760107130201936100,7.73993603515625,-0.954437255859375,-0.3458099365234375,0.0307464599609375
1760107130212001000,7.7500009765625,-0.964324951171875,-0.3468780517578125,0.0293731689453125
1760107130222067200,7.760067138671875,-0.966796875,-0.344146728515625,0.0323486328125
1760107130232132000,7.770132080078125,-0.9639892578125,-0.334869384765625,0.03424072265625
1760107130242198300,7.7801982421875,-0.9528045654296875,-0.32562255859375,0.03363037109375
1760107130252264200,7.79026416015625,-0.941253662109375,-0.3270416259765625,0.02874755859375
1760107130262329000,7.8003291015625,-0.934906005859375,-0.3395538330078125,0.0258941650390625
1760107130272395000,7.81039501953125,-0.9409027099609375,-0.3495941162109375,0.0259246826171875
1760107130282461200,7.820461181640625,-0.9487152099609375,-0.351531982421875,0.024139404296875
1760107130292526300,7.8305263671875,-0.95281982421875,-0.345611572265625,0.0240325927734375
1760107130302592000,7.840592041015625,-0.9514923095703125,-0.344390869140625,0.020233154296875
1760107130312657200,7.8506572265625,-0.94317626953125,-0.343292236328125,0.018280029296875
1760107130322723000,7.86072314453125,-0.93658447265625,-0.343597412109375,0.0172271728515625
1760107130332789200,7.870789306640625,-0.93548583984375,-0.3474578857421875,0.0189666748046875
1760107130342854100,7.880854248046875,-0.94488525390625,-0.3523406982421875,0.0231170654296875
1760107130352920000,7.890920166015625,-0.954193115234375,-0.3495025634765625,0.025115966796875
1760107130362986000,7.900986083984375,-0.956146240234375,-0.342864990234375,0.0240936279296875
1760107130373051100,7.911051025390625,-0.95013427734375,-0.341705322265625,0.0233917236328125
1760107130383117300,7.921117431640625,-0.938232421875,-0.3460235595703125,0.024627685546875
1760107130393183200,7.931183349609375,-0.9270782470703125,-0.3502349853515625,0.02783203125
1760107130403248000,7.941248046875,-0.92987060546875,-0.3503875732421875,0.0321044921875
1760107130413314000,7.95131396484375,-0.9400482177734375,-0.3454742431640625,0.034912109375
1760107130423379200,7.961379150390625,-0.947967529296875,-0.33892822265625,0.0342254638671875
1760107130433445000,7.971445068359375,-0.9528350830078125,-0.336181640625,0.0291595458984375
1760107130443511300,7.98151123046875,-0.9559478759765625,-0.3402862548828125,0.0294036865234375
1760107130453576200,7.991576171875,-0.953582763671875,-0.3428497314453125,0.0272674560546875
1760107130463642000,8.00164208984375,-0.9502716064453125,-0.342132568359375,0.026824951171875
1760107130473708000,8.0117080078125,-0.951080322265625,-0.34100341796875,0.033203125
1760107130483773200,8.021773193359374,-0.9585113525390625,-0.338958740234375,0.03753662109375
1760107130493839400,8.03183935546875,-0.9639739990234375,-0.335723876953125,0.0406646728515625
1760107130503905000,8.041905029296874,-0.965728759765625,-0.33380126953125,0.0419769287109375
1760107130513970200,8.05197021484375,-0.9613037109375,-0.33489990234375,0.0409393310546875
1760107130524036000,8.0620361328125,-0.9543914794921875,-0.3404693603515625,0.0339508056640625
1760107130534101200,8.072101318359374,-0.942657470703125,-0.3470916748046875,0.028289794921875
1760107130544167200,8.082167236328125,-0.933197021484375,-0.3525390625,0.024169921875
1760107130554233000,8.092233154296874,-0.9302825927734375,-0.3531646728515625,0.02203369140625
1760107130564298200,8.10229833984375,-0.93280029296875,-0.35162353515625,0.024566650390625
1760107130574364200,8.1123642578125,-0.9399871826171875,-0.3487396240234375,0.0260009765625
1760107130584430300,8.122430419921875,-0.9483795166015625,-0.3462371826171875,0.026458740234375
1760107130594495000,8.132494873046875,-0.9585113525390625,-0.3456573486328125,0.027587890625
1760107130604561200,8.14256103515625,-0.9704437255859375,-0.34588623046875,0.0258636474609375
1760107130614626000,8.1526259765625,-0.9760589599609375,-0.34552001953125,0.02056884765625
1760107130624692200,8.162692138671876,-0.9718780517578125,-0.3444671630859375,0.021331787109375
1760107130634758100,8.172758056640625,-0.964324951171875,-0.3444976806640625,0.0241241455078125
1760107130644823000,8.182822998046875,-0.9595794677734375,-0.34515380859375,0.031646728515625
1760107130654889200,8.19288916015625,-0.94744873046875,-0.3423614501953125,0.03582763671875
1760107130664955100,8.202955078125,-0.9360809326171875,-0.3434906005859375,0.0364227294921875
1760107130675020300,8.213020263671876,-0.92913818359375,-0.3477783203125,0.03704833984375
1760107130685086200,8.223086181640625,-0.93212890625,-0.3546600341796875,0.0275726318359375
1760107130695151000,8.233151123046875,-0.93255615234375,-0.358642578125,0.0197296142578125
1760107130705217000,8.243217041015624,-0.9356842041015625,-0.3587188720703125,0.017822265625
1760107130715283200,8.253283203125,-0.943206787109375,-0.3541717529296875,0.0273895263671875
1760107130725348400,8.263348388671876,-0.9546356201171875,-0.34576416015625,0.037322998046875
1760107130735414300,8.273414306640625,-0.9525146484375,-0.3375701904296875,0.042510986328125
1760107130745480000,8.28347998046875,-0.9454803466796875,-0.3379364013671875,0.0472412109375
1760107130755545000,8.293545166015624,-0.94647216796875,-0.34490966796875,0.046356201171875
1760107130765611300,8.303611328125,-0.945281982421875,-0.3504180908203125,0.040924072265625
1760107130775676200,8.31367626953125,-0.9356231689453125,-0.3447418212890625,0.0358123779296875
1760107130785742000,8.3237421875,-0.92547607421875,-0.3421173095703125,0.0359649658203125
1760107130795808000,8.33380810546875,-0.9183349609375,-0.3457794189453125,0.0383148193359375
1760107130805873200,8.343873046875,-0.918365478515625,-0.348114013671875,0.0399322509765625
1760107130815939000,8.35393896484375,-0.9279632568359375,-0.34771728515625,0.039794921875
1760107130826005200,8.364005126953124,-0.9434051513671875,-0.3457183837890625,0.03936767578125
1760107130836070100,8.374070068359375,-0.9590911865234375,-0.34271240234375,0.037933349609375
1760107130846136000,8.384135986328126,-0.964630126953125,-0.3403167724609375,0.0376434326171875
1760107130856201200,8.394201171875,-0.9629058837890625,-0.3409576416015625,0.0368194580078125
1760107130866267100,8.40426708984375,-0.957977294921875,-0.3441009521484375,0.0367889404296875
1760107130876333300,8.414333251953124,-0.9532928466796875,-0.34722900390625,0.0374298095703125
1760107130886398000,8.42439794921875,-0.950042724609375,-0.347259521484375,0.0360107421875
1760107130896464100,8.434464111328126,-0.945770263671875,-0.3476715087890625,0.035400390625
1760107130906530000,8.444530029296875,-0.9435882568359375,-0.34820556640625,0.0359039306640625
1760107130916595200,8.45459521484375,-0.9483184814453125,-0.3484954833984375,0.0339202880859375
1760107130926661400,8.464661376953124,-0.9552154541015625,-0.347198486328125,0.0362091064453125
1760107130936727000,8.47472705078125,-0.9609375,-0.34674072265625,0.0327606201171875
1760107130946792200,8.484792236328126,-0.9584808349609375,-0.3484954833984375,0.024078369140625
1760107130956858000,8.494858154296875,-0.956451416015625,-0.354400634765625,0.02435302734375
1760107130966923300,8.50492333984375,-0.952728271484375,-0.357269287109375,0.02459716796875
1760107130976989000,8.514989013671874,-0.9463958740234375,-0.3557586669921875,0.0216064453125
1760107130987055000,8.52505517578125,-0.937744140625,-0.3543701171875,0.0220947265625
1760107130997120300,8.535120361328126,-0.933563232421875,-0.355621337890625,0.0281829833984375
1760107131007186200,8.545186279296875,-0.928436279296875,-0.3532257080078125,0.034698486328125
1760107131017252000,8.555252197265625,-0.923004150390625,-0.34881591796875,0.0378570556640625
1760107131027317000,8.56531689453125,-0.9245758056640625,-0.3474273681640625,0.0398101806640625
1760107131037383200,8.575383056640625,-0.93115234375,-0.3453826904296875,0.0398712158203125
1760107131047448000,8.585447998046876,-0.9415130615234375,-0.3430328369140625,0.03863525390625
1760107131057514200,8.59551416015625,-0.951263427734375,-0.3397674560546875,0.035247802734375
1760107131067580200,8.605580078125,-0.9615325927734375,-0.3411865234375,0.03326416015625
1760107131077645000,8.61564501953125,-0.9667205810546875,-0.3436126708984375,0.0322418212890625
1760107131087711000,8.6257109375,-0.9580841064453125,-0.343292236328125,0.029754638671875
1760107131097777200,8.635777099609374,-0.9467926025390625,-0.345489501953125,0.0312042236328125
1760107131107842300,8.64584228515625,-0.939483642578125,-0.349822998046875,0.0352783203125
1760107131117908200,8.655908203125,-0.9401092529296875,-0.3526763916015625,0.0357208251953125
1760107131127973000,8.66597314453125,-0.9445953369140625,-0.351959228515625,0.035797119140625
1760107131138039000,8.6760390625,-0.948272705078125,-0.3489837646484375,0.0327606201171875
1760107131148105200,8.686105224609374,-0.9441986083984375,-0.3490753173828125,0.030853271484375
1760107131158170000,8.696170166015625,-0.9441680908203125,-0.353271484375,0.0313873291015625
1760107131168236800,8.70623681640625,-0.941680908203125,-0.3522491455078125,0.0261688232421875
1760107131178302700,8.716302734375,-0.939727783203125,-0.35223388671875,0.0230712890625
1760107131188367600,8.72636767578125,-0.9423828125,-0.3533935546875,0.023529052734375
1760107131198433500,8.73643359375,-0.949432373046875,-0.3518829345703125,0.0230865478515625
1760107131208498700,8.746498779296875,-0.95721435546875,-0.34832763671875,0.0254364013671875
1760107131218564900,8.75656494140625,-0.96014404296875,-0.3452911376953125,0.0283203125
1760107131228630500,8.766630615234375,-0.9591522216796875,-0.3436126708984375,0.029510498046875
1760107131238695700,8.77669580078125,-0.95404052734375,-0.3437042236328125,0.0299224853515625
1760107131248761600,8.78676171875,-0.94537353515625,-0.344512939453125,0.03375244140625
1760107131258827800,8.796827880859375,-0.938201904296875,-0.344329833984375,0.0367431640625
1760107131268892700,8.806892578125,-0.9326019287109375,-0.3461151123046875,0.0347747802734375
1760107131278958600,8.81695849609375,-0.9301910400390625,-0.3489532470703125,0.033843994140625
1760107131289023700,8.827023681640625,-0.93804931640625,-0.3495941162109375,0.0326690673828125
1760107131299089700,8.837089599609374,-0.9490966796875,-0.3478851318359375,0.0326690673828125
1760107131309155600,8.847155517578125,-0.9615631103515625,-0.3469696044921875,0.0361328125
1760107131319220500,8.857220458984376,-0.966339111328125,-0.34259033203125,0.0392303466796875
1760107131329286700,8.86728662109375,-0.960235595703125,-0.3421783447265625,0.0359954833984375
1760107131339352600,8.8773525390625,-0.947113037109375,-0.3473052978515625,0.0304107666015625
1760107131349417700,8.887417724609374,-0.9349212646484375,-0.35321044921875,0.023895263671875
1760107131359483600,8.897483642578125,-0.9259033203125,-0.354736328125,0.0195465087890625
1760107131369548500,8.907548583984376,-0.92938232421875,-0.355560302734375,0.0181121826171875
1760107131379614500,8.917614501953125,-0.94744873046875,-0.355255126953125,0.0228729248046875
1760107131389680600,8.9276806640625,-0.9626007080078125,-0.3500518798828125,0.0292205810546875
1760107131399745800,8.937745849609374,-0.9715118408203125,-0.3447418212890625,0.0343017578125
1760107131409811700,8.947811767578125,-0.96630859375,-0.34222412109375,0.0400390625
1760107131419878000,8.9578779296875,-0.9524383544921875,-0.34210205078125,0.04571533203125
1760107131429942500,8.967942626953125,-0.9349212646484375,-0.343414306640625,0.0447540283203125
1760107131440008700,8.9780087890625,-0.9208221435546875,-0.3456878662109375,0.03912353515625
1760107131450073600,8.988073486328124,-0.9179229736328125,-0.3502655029296875,0.031829833984375
1760107131460139800,8.998139892578125,-0.9273223876953125,-0.3527374267578125,0.0263519287109375
1760107131470205400,9.008205322265624,-0.9444580078125,-0.3494873046875,0.0277557373046875
1760107131480270600,9.0182705078125,-0.9568939208984375,-0.34344482421875,0.030029296875
1760107131490336800,9.028336669921876,-0.9631500244140625,-0.34234619140625,0.032958984375
1760107131500401700,9.038401611328124,-0.96527099609375,-0.342010498046875,0.036956787109375
1760107131510467800,9.0484677734375,-0.9599761962890625,-0.3421630859375,0.03936767578125
1760107131520533500,9.058533447265624,-0.9571990966796875,-0.34246826171875,0.041900634765625
1760107131530598700,9.0685986328125,-0.9530487060546875,-0.3406829833984375,0.039520263671875
1760107131540664600,9.07866455078125,-0.9463348388671875,-0.343292236328125,0.0337982177734375
1760107131550730800,9.088730712890625,-0.9444580078125,-0.3495635986328125,0.0302734375
1760107131560795600,9.098795654296875,-0.9430999755859375,-0.3528594970703125,0.027679443359375
1760107131570861600,9.108861572265624,-0.9454345703125,-0.35260009765625,0.0232391357421875
1760107131580927500,9.118927490234375,-0.9549407958984375,-0.3532867431640625,0.0234832763671875
1760107131590992600,9.12899267578125,-0.961883544921875,-0.35137939453125,0.020355224609375
1760107131601058800,9.139058837890625,-0.956298828125,-0.349945068359375,0.0180206298828125
1760107131611123500,9.14912353515625,-0.94464111328125,-0.3552703857421875,0.019287109375
1760107131621189600,9.159189697265624,-0.9337005615234375,-0.35821533203125,0.02374267578125
1760107131631255600,9.169255615234375,-0.9246673583984375,-0.358245849609375,0.025421142578125
1760107131641320700,9.17932080078125,-0.9256591796875,-0.3561553955078125,0.02435302734375
1760107131651386600,9.18938671875,-0.9333648681640625,-0.35418701171875,0.0225982666015625
1760107131661452500,9.19945263671875,-0.944976806640625,-0.3524169921875,0.0203704833984375
1760107131671517700,9.209517578125,-0.9524383544921875,-0.34930419921875,0.022430419921875
1760107131681583600,9.21958349609375,-0.956298828125,-0.3437042236328125,0.0302581787109375
1760107131691648800,9.229648681640626,-0.953338623046875,-0.33782958984375,0.0376129150390625
1760107131701714700,9.239714599609375,-0.9489288330078125,-0.3361053466796875,0.040985107421875
1760107131711780600,9.249780517578126,-0.9453277587890625,-0.338623046875,0.0410614013671875
1760107131721845500,9.259845458984374,-0.943206787109375,-0.343048095703125,0.0386505126953125
1760107131731911700,9.26991162109375,-0.939788818359375,-0.34521484375,0.0344390869140625
1760107131741976800,9.279976806640626,-0.93701171875,-0.3469390869140625,0.0326080322265625
1760107131752042500,9.29004248046875,-0.93829345703125,-0.3470916748046875,0.033294677734375
1760107131762108700,9.300108642578126,-0.940887451171875,-0.34515380859375,0.033843994140625
1760107131772173600,9.310173583984374,-0.9413604736328125,-0.3431243896484375,0.0353240966796875
1760107131782239700,9.32023974609375,-0.9452972412109375,-0.343597412109375,0.0345458984375
1760107131792305700,9.3303056640625,-0.95147705078125,-0.3446502685546875,0.034210205078125
1760107131802370600,9.34037060546875,-0.95611572265625,-0.3444671630859375,0.0340423583984375
1760107131812436500,9.3504365234375,-0.9552001953125,-0.3438720703125,0.031768798828125
1760107131822501600,9.360501708984375,-0.9478302001953125,-0.34765625,0.0290069580078125
1760107131832567800,9.37056787109375,-0.9399566650390625,-0.3530731201171875,0.027099609375
1760107131842633700,9.3806337890625,-0.9339447021484375,-0.3543243408203125,0.0261688232421875
1760107131852698600,9.39069873046875,-0.936431884765625,-0.3550262451171875,0.0291595458984375
1760107131862764500,9.4007646484375,-0.94091796875,-0.3515472412109375,0.030242919921875
1760107131872830700,9.410830810546875,-0.9477386474609375,-0.34979248046875,0.0296630859375
1760107131882895600,9.4208955078125,-0.955322265625,-0.3497314453125,0.0279083251953125
1760107131892961800,9.4309619140625,-0.9629974365234375,-0.353363037109375,0.023712158203125
1760107131903026700,9.441026611328125,-0.962890625,-0.35296630859375,0.0229339599609375
1760107131913092600,9.451092529296876,-0.9562530517578125,-0.3519744873046875,0.0261383056640625
1760107131923158500,9.461158447265625,-0.9467620849609375,-0.3498992919921875,0.0310211181640625
1760107131933223700,9.4712236328125,-0.939208984375,-0.348663330078125,0.033782958984375
1760107131943289900,9.481289794921874,-0.9377288818359375,-0.34869384765625,0.031524658203125
1760107131953354500,9.4913544921875,-0.942138671875,-0.3489227294921875,0.0290069580078125
1760107131963420700,9.501420654296876,-0.9452667236328125,-0.3474884033203125,0.028717041015625
1760107131973486600,9.511486572265625,-0.9503326416015625,-0.3436737060546875,0.0303955078125
1760107131983551700,9.5215517578125,-0.954559326171875,-0.3430633544921875,0.029937744140625
1760107131993617400,9.531617431640624,-0.9555816650390625,-0.3452606201171875,0.0268096923828125
1760107132003683600,9.54168359375,-0.9516754150390625,-0.3480682373046875,0.02581787109375
1760107132013748700,9.551748779296876,-0.94537353515625,-0.3483428955078125,0.0236358642578125
1760107132023814700,9.561814697265625,-0.93988037109375,-0.347869873046875,0.0328521728515625
1760107132033879800,9.5718798828125,-0.9357757568359375,-0.3453216552734375,0.0369720458984375
1760107132043945500,9.581945556640624,-0.9391021728515625,-0.3432159423828125,0.038909912109375
1760107132054011600,9.59201171875,-0.946868896484375,-0.3439178466796875,0.0378570556640625
1760107132064076500,9.60207666015625,-0.9553985595703125,-0.34625244140625,0.0351715087890625
1760107132074142700,9.612142822265625,-0.9600830078125,-0.344482421875,0.0310211181640625
1760107132084208600,9.622208740234376,-0.9581756591796875,-0.345123291015625,0.03192138671875
1760107132094273500,9.6322734375,-0.95147705078125,-0.3492279052734375,0.0300445556640625
1760107132104339700,9.642339599609375,-0.940460205078125,-0.3557586669921875,0.0286712646484375
1760107132114404600,9.652404541015626,-0.9267730712890625,-0.3628082275390625,0.0276641845703125
1760107132124470800,9.662470703125,-0.9222259521484375,-0.3625640869140625,0.024993896484375
1760107132134536700,9.67253662109375,-0.9318084716796875,-0.351837158203125,0.02166748046875
1760107132144601600,9.6826015625,-0.93841552734375,-0.345001220703125,0.0223388671875
1760107132154667500,9.69266748046875,-0.9295654296875,-0.34527587890625,0.0257568359375
1760107132164733700,9.702733642578124,-0.9290618896484375,-0.351287841796875,0.0327606201171875
1760107132174798800,9.712798828125,-0.92303466796875,-0.35064697265625,0.0331573486328125
1760107132184864800,9.72286474609375,-0.938323974609375,-0.347381591796875,0.0243988037109375
1760107132194929700,9.7329296875,-0.9636688232421875,-0.3481597900390625,0.0165557861328125
1760107132204995600,9.74299560546875,-0.980010986328125,-0.3478851318359375,0.0189666748046875
1760107132215061800,9.753061767578124,-0.9782867431640625,-0.348876953125,0.021636962890625
1760107132225126700,9.763126708984375,-0.9588165283203125,-0.348114013671875,0.0266571044921875
1760107132235192600,9.773192626953126,-0.9432373046875,-0.3514251708984375,0.0345458984375
1760107132245257700,9.7832578125,-0.9350128173828125,-0.3565826416015625,0.037261962890625
1760107132255323600,9.79332373046875,-0.94073486328125,-0.35284423828125,0.0345001220703125
1760107132265389600,9.8033896484375,-0.9535675048828125,-0.3477783203125,0.0287933349609375
1760107132275454700,9.813454833984375,-0.9615325927734375,-0.345123291015625,0.0261383056640625
1760107132285520600,9.823520751953126,-0.9571990966796875,-0.34356689453125,0.0203857421875
1760107132295586600,9.833586669921875,-0.9459991455078125,-0.3494110107421875,0.0143890380859375
1760107132305651700,9.843651611328125,-0.94036865234375,-0.3547515869140625,0.016143798828125
1760107132315717600,9.853717529296874,-0.93890380859375,-0.3542938232421875,0.020263671875
1760107132325782500,9.863782470703125,-0.942169189453125,-0.3509979248046875,0.0246429443359375
1760107132335848400,9.873848388671876,-0.9471893310546875,-0.3477783203125,0.02923583984375
1760107132345914600,9.88391455078125,-0.9483184814453125,-0.3481903076171875,0.026397705078125
1760107132355979800,9.893979736328125,-0.94219970703125,-0.3507843017578125,0.0196990966796875
1760107132366045700,9.904045654296874,-0.930908203125,-0.3559417724609375,0.015899658203125
1760107132376110600,9.914110595703125,-0.92376708984375,-0.3634185791015625,0.0144805908203125
1760107132386176500,9.924176513671876,-0.9286651611328125,-0.364990234375,0.01495361328125
1760107132396242700,9.93424267578125,-0.9370269775390625,-0.358184814453125,0.025115966796875
1760107132406307600,9.9443076171875,-0.9512939453125,-0.3490142822265625,0.0355682373046875
1760107132416373800,9.954373779296875,-0.968353271484375,-0.346466064453125,0.03753662109375
1760107132426439700,9.964439697265625,-0.9741668701171875,-0.346832275390625,0.0335540771484375
1760107132436504600,9.974504638671876,-0.9739532470703125,-0.34521484375,0.0306549072265625
1760107132446570800,9.98457080078125,-0.9621734619140625,-0.3461761474609375,0.027923583984375
1760107132456635600,9.9946357421875,-0.944122314453125,-0.34527587890625,0.027252197265625
1760107132466701800,10.004701904296875,-0.931060791015625,-0.3465423583984375,0.026580810546875
1760107132476767500,10.014767578125,-0.930206298828125,-0.352996826171875,0.02264404296875
1760107132486832600,10.02483251953125,-0.9309844970703125,-0.354949951171875,0.0154571533203125
1760107132496898600,10.034898681640625,-0.93353271484375,-0.3560028076171875,0.0117034912109375
1760107132506963700,10.044963623046876,-0.942291259765625,-0.35888671875,0.0130767822265625
1760107132517030000,10.05502978515625,-0.9494476318359375,-0.3596343994140625,0.017303466796875
1760107132527095600,10.065095458984375,-0.947052001953125,-0.355133056640625,0.0187225341796875
1760107132537160700,10.07516064453125,-0.9361572265625,-0.3511199951171875,0.0212249755859375
1760107132547226600,10.0852265625,-0.9281463623046875,-0.351287841796875,0.0258941650390625
1760107132557292800,10.095292724609376,-0.931915283203125,-0.35137939453125,0.028594970703125
1760107132567357400,10.105357421875,-0.942657470703125,-0.349273681640625,0.02142333984375
1760107132577423600,10.115423583984375,-0.9594879150390625,-0.3470916748046875,0.0177459716796875
1760107132587488800,10.12548876953125,-0.9717559814453125,-0.3450469970703125,0.022979736328125
1760107132597554700,10.1355546875,-0.97198486328125,-0.343963623046875,0.027679443359375
1760107132607620600,10.14562060546875,-0.9633941650390625,-0.3440704345703125,0.0340423583984375
1760107132617685500,10.155685546875,-0.948944091796875,-0.3465728759765625,0.0328216552734375
1760107132627751700,10.165751708984375,-0.932861328125,-0.3526458740234375,0.0283203125
1760107132637816600,10.175816650390624,-0.9252166748046875,-0.360626220703125,0.0232391357421875
1760107132647882800,10.1858828125,-0.9259185791015625,-0.3641510009765625,0.021820068359375
1760107132657948700,10.19594873046875,-0.935760498046875,-0.358978271484375,0.0198974609375
1760107132668013600,10.206013671875,-0.947052001953125,-0.353790283203125,0.0171356201171875
1760107132678079500,10.21607958984375,-0.952789306640625,-0.3522796630859375,0.0191802978515625
1760107132688145700,10.226145751953124,-0.9494171142578125,-0.352447509765625,0.02215576171875
1760107132698210800,10.2362109375,-0.9495697021484375,-0.3521728515625,0.027923583984375
1760107132708276700,10.24627685546875,-0.9511566162109375,-0.3507232666015625,0.0307769775390625
1760107132718341600,10.256341552734375,-0.9496917724609375,-0.3490753173828125,0.028472900390625
1760107132728407600,10.266407470703125,-0.949981689453125,-0.34912109375,0.02850341796875
1760107132738473700,10.2764736328125,-0.9430694580078125,-0.3492584228515625,0.027679443359375
1760107132748538600,10.28653857421875,-0.93017578125,-0.3541717529296875,0.026092529296875
1760107132758604800,10.296604736328124,-0.92974853515625,-0.359039306640625,0.02093505859375
1760107132768669700,10.306669677734375,-0.937713623046875,-0.3602752685546875,0.0091705322265625
1760107132778735600,10.316735595703125,-0.9424285888671875,-0.357269287109375,0.0079803466796875
1760107132788801800,10.3268017578125,-0.9473876953125,-0.3516082763671875,0.0197601318359375
1760107132798866700,10.33686669921875,-0.94775390625,-0.3470611572265625,0.03173828125
1760107132808932600,10.3469326171875,-0.945831298828125,-0.3465576171875,0.0398712158203125
1760107132818998500,10.35699853515625,-0.94293212890625,-0.34820556640625,0.036895751953125
1760107132829063700,10.367063720703126,-0.9427032470703125,-0.3505859375,0.027435302734375
1760107132839129600,10.377129638671875,-0.9427642822265625,-0.352813720703125,0.0198516845703125
1760107132849194800,10.38719482421875,-0.946868896484375,-0.3540496826171875,0.0220947265625
1760107132859260700,10.3972607421875,-0.9548187255859375,-0.3536834716796875,0.0209197998046875
1760107132869326600,10.40732666015625,-0.96002197265625,-0.3506317138671875,0.0159454345703125
1760107132879391700,10.417391845703126,-0.95648193359375,-0.345916748046875,0.021575927734375
1760107132889457700,10.427457763671875,-0.9481201171875,-0.3477935791015625,0.02777099609375
1760107132899522600,10.4375224609375,-0.9412689208984375,-0.355194091796875,0.028778076171875
1760107132909588500,10.44758837890625,-0.9371490478515625,-0.359039306640625,0.0284576416015625
1760107132919654700,10.457654541015625,-0.9401092529296875,-0.356201171875,0.0230712890625
1760107132929719800,10.4677197265625,-0.949371337890625,-0.3544921875,0.018310546875
1760107132939785700,10.47778564453125,-0.9547119140625,-0.352813720703125,0.0172119140625
1760107132949851600,10.4878515625,-0.9513092041015625,-0.3519134521484375,0.019805908203125
1760107132959916500,10.49791650390625,-0.948486328125,-0.3531951904296875,0.02435302734375
1760107132969982700,10.507982666015625,-0.941253662109375,-0.3520660400390625,0.024627685546875
1760107132980047600,10.518047607421876,-0.9390411376953125,-0.3529510498046875,0.0252685546875
1760107132990113800,10.52811376953125,-0.9433441162109375,-0.355712890625,0.0251617431640625
1760107133000179700,10.5381796875,-0.944244384765625,-0.35687255859375,0.016876220703125
1760107133010244600,10.54824462890625,-0.949798583984375,-0.356597900390625,0.0115814208984375
1760107133020310500,10.558310546875,-0.9558258056640625,-0.3567962646484375,0.0167999267578125
1760107133030375700,10.568375732421876,-0.9522857666015625,-0.353485107421875,0.0211334228515625
1760107133040441900,10.57844189453125,-0.943389892578125,-0.350616455078125,0.0265960693359375
1760107133050507500,10.588507568359375,-0.9317626953125,-0.3491973876953125,0.0305023193359375
1760107133060572700,10.59857275390625,-0.91656494140625,-0.349822998046875,0.0307769775390625
1760107133070638600,10.608638671875,-0.91265869140625,-0.354095458984375,0.02972412109375
1760107133080703700,10.618703857421876,-0.919342041015625,-0.35638427734375,0.0298309326171875
1760107133090769700,10.628769775390625,-0.92449951171875,-0.3530120849609375,0.0269012451171875
1760107133100835600,10.638835693359376,-0.9401397705078125,-0.351959228515625,0.0268402099609375
1760107133110900700,10.648900634765624,-0.96246337890625,-0.3503570556640625,0.031707763671875
1760107133120966700,10.658966552734375,-0.97735595703125,-0.34442138671875,0.030792236328125
1760107133131032800,10.66903271484375,-0.9794464111328125,-0.3425445556640625,0.029632568359375
1760107133141097500,10.679097412109375,-0.97491455078125,-0.3448944091796875,0.028839111328125
1760107133151163600,10.68916357421875,-0.963623046875,-0.3500823974609375,0.02410888671875
1760107133161228500,10.699228515625,-0.952117919921875,-0.3519744873046875,0.0279541015625
1760107133171294200,10.709294189453125,-0.943206787109375,-0.352142333984375,0.029388427734375
1760107133181360000,10.719360107421876,-0.944915771484375,-0.3511505126953125,0.0279541015625
1760107133191425000,10.729425048828125,-0.955322265625,-0.353851318359375,0.0331268310546875
1760107133201491200,10.7394912109375,-0.9640960693359375,-0.353912353515625,0.0257568359375
1760107133211556000,10.74955615234375,-0.973541259765625,-0.354522705078125,0.009796142578125
1760107133221622300,10.759622314453125,-0.9758758544921875,-0.3618927001953125,0.0008392333984375
1760107133231688200,10.769688232421874,-0.9541778564453125,-0.3591461181640625,0.0062713623046875
1760107133241753000,10.779753173828125,-0.9270782470703125,-0.3603973388671875,0.0140838623046875
1760107133251819000,10.789819091796875,-0.914398193359375,-0.3609771728515625,0.0374603271484375
1760107133261884200,10.79988427734375,-0.919464111328125,-0.3635406494140625,0.049285888671875
1760107133271950300,10.809950439453125,-0.937408447265625,-0.35650634765625,0.047393798828125
1760107133282016000,10.82001611328125,-0.9368133544921875,-0.360626220703125,0.04559326171875
1760107133292081200,10.8300810546875,-0.9317779541015625,-0.358001708984375,0.0465850830078125
1760107133302147000,10.84014697265625,-0.9263916015625,-0.3546600341796875,0.047576904296875
1760107133312213200,10.850213134765625,-0.920806884765625,-0.3554534912109375,0.0335845947265625
1760107133322278100,10.860278076171875,-0.91375732421875,-0.36041259765625,0.0191192626953125
1760107133332344000,10.870343994140624,-0.909088134765625,-0.3643646240234375,0.0205078125
1760107133342409200,10.8804091796875,-0.919769287109375,-0.3657989501953125,0.0245513916015625
1760107133352475100,10.89047509765625,-0.9300994873046875,-0.3607330322265625,0.0217132568359375
1760107133362541300,10.900541259765625,-0.940185546875,-0.35894775390625,0.02056884765625
1760107133372606000,10.91060595703125,-0.95001220703125,-0.364471435546875,0.021087646484375
