time,seconds_elapsed,z,y,x
1760107122540706800,0.078706787109375,-0.13520339131355286,0.09188097715377808,0.14357927441596985
1760107122550773000,0.08877294921875,-0.09434197098016739,0.05178522318601608,0.10043845325708389
1760107122560839000,0.0988388671875,-0.035877518355846405,-0.01979156583547592,0.04149288311600685
1760107122570905000,0.108905029296875,0.0068254731595516205,-0.06912822276353836,-0.020993929356336594
1760107122580969700,0.1189697265625,0.028752263635396957,-0.05950907617807388,-0.05916106328368187
1760107122591036000,0.129035888671875,0.028329089283943176,-0.014868638478219509,-0.06958626955747604
1760107122601101800,0.139101806640625,0.014831652864813805,0.030874140560626984,-0.046764619648456573
1760107122611167000,0.1491669921875,-0.013304910622537136,0.05793372169137001,-0.014241299591958523
1760107122621232600,0.159232666015625,-0.037646371871232986,0.05810001119971275,0.013656668365001678
1760107122631298800,0.169298828125,-0.033368539065122604,0.05487625673413277,0.01981043443083763
1760107122641364000,0.179364013671875,-0.01220832671970129,0.05344156175851822,0.013889254070818424
1760107122651430000,0.189429931640625,0.008396283723413944,0.03953826427459717,-0.0005677152657881379
1760107122661495800,0.199495849609375,0.017100932076573372,0.022231917828321457,-0.008753322996199131
1760107122671562000,0.20956201171875,0.010008667595684528,0.0015862928703427315,0.005279405042529106
1760107122681627000,0.219626953125,0.002856127917766571,-0.023814424872398376,0.028872450813651085
1760107122691692800,0.22969287109375,-0.0034614226315170527,-0.028194524347782135,0.05729077756404877
1760107122701759000,0.239759033203125,-0.008167310617864132,-0.010594362393021584,0.07687877863645554
1760107122711824000,0.249823974609375,-0.004248469136655331,0.012222004123032093,0.06778035312891006
1760107122721890000,0.25989013671875,0.003449925221502781,0.033980146050453186,0.04623742774128914
1760107122731955700,0.269955810546875,0.016811802983283997,0.03410957753658295,0.011776125989854336
1760107122742020900,0.280020751953125,0.026325151324272156,0.024065673351287842,-0.01647331193089485
1760107122752086800,0.290086669921875,0.02170509845018387,0.009269949048757553,-0.036951687186956406
1760107122762153000,0.300153076171875,0.01101374439895153,-0.0029986053705215454,-0.03501022607088089
1760107122772219000,0.310218994140625,0.011881668120622635,-0.008873272687196732,-0.01719341240823269
1760107122782283800,0.32028369140625,0.005171211436390877,-0.017988968640565872,0.0015260068466886878
1760107122792349700,0.330349609375,-0.0032984395511448383,-0.015064550563693047,0.004366801120340824
1760107122802415900,0.340415771484375,0.0019360966980457306,-0.006995269097387791,-0.0019433116540312767
1760107122812481000,0.35048095703125,0.009380697272717953,0.004326094873249531,-0.03941532224416733
1760107122822547000,0.360546875,0.017342474311590195,0.012357030063867569,-0.0668257623910904
1760107122832612900,0.37061279296875,0.025547141209244728,0.019114002585411072,-0.07197605073451996
1760107122842677800,0.380677734375,0.028958570212125778,0.01777530461549759,-0.04252764955163002
1760107122852744000,0.390743896484375,0.023235972970724106,0.00493673887103796,0.0005985122406855226
1760107122862809900,0.400809814453125,0.009327782317996025,-0.011219972744584084,0.04355341196060181
1760107122872875000,0.410875,-0.008134031668305397,-0.01666427217423916,0.06433166563510895
1760107122882940700,0.420940673828125,-0.01696915552020073,-0.014013380743563175,0.05964859575033188
1760107122893006800,0.4310068359375,-0.013443397358059883,-0.0021543242037296295,0.030580993741750717
1760107122903072800,0.44107275390625,-0.007200345862656832,0.011215637437999249,-0.0049193017184734344
1760107122913138000,0.451137939453125,0.006868867669254541,0.022678151726722717,-0.025744156911969185
1760107122923203800,0.461203857421875,0.01503873709589243,0.029370903968811035,-0.020228810608386993
1760107122933269800,0.471269775390625,0.020956017076969147,0.022253870964050293,-0.004688466899096966
1760107122943335000,0.4813349609375,0.02757861092686653,0.006796710193157196,0.01931643672287464
1760107122953400800,0.49140087890625,0.025799352675676346,-0.01964821293950081,0.031307317316532135
1760107122963467000,0.501467041015625,0.01684483140707016,-0.040236618369817734,0.022613368928432465
1760107122973532000,0.511531982421875,0.004983110353350639,-0.04448089748620987,0.007092733401805162
1760107122983597800,0.521597900390625,-0.005114446859806776,-0.02282053232192993,-0.018955525010824203
1760107122993663700,0.531663818359375,-0.008589872159063816,0.014056259766221046,-0.03931352496147156
1760107123003729000,0.54172900390625,-0.006700449623167515,0.040621593594551086,-0.04674608260393143
1760107123013794800,0.551794921875,0.00016384804621338844,0.03886017948389053,-0.03425372391939163
1760107123023861000,0.561861083984375,0.0029314812272787094,0.01163520198315382,-0.006939818616956472
1760107123033927000,0.571927001953125,-0.002442245138809085,-0.026711389422416687,0.026851700618863106
1760107123043991800,0.58199169921875,-0.0006816426757723093,-0.047740016132593155,0.04835149645805359
1760107123054057700,0.5920576171875,0.0000035888515412807465,-0.04416871443390846,0.05171506851911545
1760107123064124000,0.6021240234375,0.0016802460886538029,-0.03042556717991829,0.031347036361694336
1760107123074189000,0.61218896484375,0.013113463297486305,-0.02315833419561386,0.005368167534470558
1760107123084254700,0.622254638671875,0.0301118902862072,-0.03062935546040535,-0.02178271673619747
1760107123094321000,0.63232080078125,0.045374732464551926,-0.0494011789560318,-0.054524149745702744
1760107123104385800,0.6423857421875,0.03724684938788414,-0.0268276184797287,-0.06443950533866882
1760107123114452000,0.652451904296875,0.020011937245726585,0.01441276352852583,-0.06977275758981705
1760107123124518000,0.662517822265625,-0.003022978315129876,0.04729305952787399,-0.059345927089452744
1760107123134582800,0.672582763671875,-0.010457192547619343,0.06315538287162781,-0.048053059726953506
1760107123144648700,0.682648681640625,0.005148041993379593,0.04334309697151184,-0.024366576224565506
1760107123154715000,0.69271484375,0.013416091911494732,0.0009511671960353851,0.002785149496048689
1760107123164780500,0.702780517578125,0.01643202267587185,-0.03795314207673073,0.018155250698328018
1760107123174845700,0.712845703125,0.004587613511830568,-0.0611194483935833,0.006183010991662741
1760107123184911600,0.72291162109375,0.000010970979928970337,-0.04476284608244896,-0.022797241806983948
1760107123194977800,0.732977783203125,0.0018408289179205894,-0.01799967512488365,-0.0470099002122879
1760107123205043000,0.74304296875,0.008991878479719162,-0.04200737178325653,-0.0479792021214962
1760107123215108600,0.753108642578125,0.014238571748137474,-0.04421459883451462,-0.014497144147753716
1760107123225174800,0.7631748046875,0.010148315690457821,-0.007055080961436033,0.0377359464764595
1760107123235239700,0.77323974609375,0.003428627736866474,0.000047569163143634796,0.07147447019815445
1760107123245305900,0.783305908203125,-0.001910306978970766,0.0033793412148952484,0.075820192694664
1760107123255371800,0.793371826171875,0.007060018368065357,0.02903144247829914,0.05268344655632973
1760107123265436700,0.803436767578125,0.008131211623549461,0.034817520529031754,-0.0012073037214577198
1760107123275502600,0.813502685546875,0.0069706072099506855,0.018903005868196487,-0.04558355733752251
1760107123285568800,0.82356884765625,0.0019789626821875572,-0.0020719170570373535,-0.06722182035446167
1760107123295634000,0.833634033203125,-0.008149571716785431,-0.029405269771814346,-0.06463561952114105
1760107123305699800,0.843699951171875,-0.019491448998451233,-0.03961944580078125,-0.029834583401679993
1760107123315765500,0.853765625,-0.02632325515151024,-0.020562663674354553,0.009898447431623936
1760107123325831700,0.863831787109375,-0.024107767269015312,0.00687689334154129,0.028966190293431282
1760107123335896800,0.873896728515625,-0.009206583723425865,0.032592374831438065,0.02491818554699421
1760107123345962800,0.883962646484375,0.006145741790533066,0.04488339647650719,0.008021759800612926
1760107123356028700,0.894028564453125,0.01706363633275032,0.03009699285030365,-0.011004394851624966
1760107123366093600,0.904093505859375,0.02144487015902996,0.005857260897755623,-0.01748448982834816
1760107123376159700,0.91415966796875,0.01769939996302128,-0.013109240680932999,-0.017339881509542465
1760107123386225700,0.9242255859375,0.016882911324501038,-0.02576393634080887,-0.010591454803943634
1760107123396290800,0.934290771484375,0.013035709969699383,-0.02709897793829441,0.0034987973049283028
1760107123406356700,0.944356689453125,0.0013589072041213512,-0.013385928235948086,0.015005500055849552
1760107123416423000,0.9544228515625,-0.014538565650582314,0.008296729996800423,0.0257918331772089
1760107123426487800,0.96448779296875,-0.02631411701440811,0.030951738357543945,0.02180183306336403
1760107123436553700,0.9745537109375,-0.029210837557911873,0.04499298706650734,0.012888499535620213
1760107123446619600,0.98461962890625,-0.026227101683616638,0.04771070554852486,-0.006285946350544691
1760107123456685800,0.994685791015625,-0.02154526486992836,0.03461248055100441,-0.024304892867803574
1760107123466750700,1.004750732421875,-0.017386479303240776,0.0065058572217822075,-0.027310356497764587
1760107123476816600,1.014816650390625,-0.012648715637624264,-0.02215614542365074,-0.01125415787100792
1760107123486882600,1.024882568359375,-0.008257169276475906,-0.03263823315501213,0.006483742035925388
1760107123496947700,1.03494775390625,0.0021374141797423363,-0.014926083385944366,0.029373345896601677
1760107123507014000,1.045013916015625,0.010069824755191803,0.0020812619477510452,0.02902385964989662
1760107123517079800,1.055079833984375,-0.000009441748261451721,0.02383582293987274,0.01186511293053627
1760107123527144700,1.065144775390625,-0.01540925819426775,0.04345451295375824,-0.016484133899211884
1760107123537210600,1.075210693359375,-0.024571331217885017,0.05781454220414162,-0.03673481196165085
1760107123547276800,1.08527685546875,-0.026251165196299553,0.05795784294605255,-0.037634529173374176
1760107123557341700,1.095341796875,-0.03148693963885307,0.03045324608683586,-0.014067950658500195
1760107123567407900,1.105407958984375,-0.028967779129743576,-0.009161291643977165,0.0291889701038599
1760107123577473500,1.1154736328125,-0.023434530943632126,-0.024922944605350494,0.05813060700893402
1760107123587538700,1.12553857421875,-0.02021760120987892,-0.026272784918546677,0.06524685770273209
1760107123597604900,1.13560498046875,-0.01827642321586609,-0.023029055446386337,0.03759047016501427
1760107123607670800,1.1456708984375,-0.01880365051329136,-0.0028160056099295616,-0.005806769710034132
1760107123617736700,1.15573681640625,-0.01779244840145111,0.025248117744922638,-0.042732831090688705
1760107123627801600,1.165801513671875,-0.006183011922985315,0.052631672471761703,-0.06160380318760872
1760107123637867800,1.17586767578125,0.0050443424843251705,0.05616356059908867,-0.049131155014038086
1760107123647933700,1.18593359375,0.009565675631165504,0.03594118729233742,-0.015421004965901375
1760107123657998800,1.195998779296875,0.009091898798942566,0.007596631534397602,0.0345473550260067
1760107123668064800,1.206064697265625,0.004200993105769157,-0.021792780607938766,0.06230535730719566
1760107123678130700,1.216130615234375,0.000947676133364439,-0.04541794955730438,0.06350643932819366
1760107123688195600,1.226195556640625,0.0011919005773961544,-0.05185183882713318,0.0494360625743866
1760107123698261800,1.23626171875,0.012881847098469734,-0.04101969674229622,0.03295455873012543
1760107123708327700,1.24632763671875,0.01925674080848694,-0.018921244889497757,0.017824195325374603
1760107123718392800,1.256392822265625,0.02472580596804619,0.00961559172719717,0.016264649108052254
1760107123728458800,1.266458740234375,0.019597359001636505,0.028679832816123962,0.01768011972308159
1760107123738524700,1.276524658203125,0.01380776334553957,0.044397249817848206,0.012383145280182362
1760107123748589800,1.28658984375,-0.0035499357618391514,0.04603938013315201,0.0011547806207090616
1760107123758655700,1.29665576171875,-0.012474987655878067,0.030628196895122528,-0.01153038814663887
1760107123768722000,1.306721923828125,-0.015258893370628357,0.012938418425619602,-0.01654922403395176
1760107123778786600,1.31678662109375,-0.010233242064714432,-0.005082127638161182,-0.01032514963299036
1760107123788852700,1.326852783203125,-0.00477215088903904,-0.026600431650877,0.009072419255971909
1760107123798918700,1.336918701171875,-0.008277136832475662,-0.043537601828575134,0.024155497550964355
1760107123808984800,1.34698486328125,-0.00686557125300169,-0.040394578129053116,0.028079606592655182
1760107123819049700,1.3570498046875,-0.011940491385757923,-0.02760501205921173,0.011406885460019112
1760107123829115600,1.36711572265625,-0.008255372755229473,-0.006387081928551197,-0.016958069056272507
1760107123839181600,1.377181640625,0.000993252731859684,0.01165024098008871,-0.0420256033539772
1760107123849246700,1.387246826171875,0.007951474748551846,0.006344613619148731,-0.057326387614011765
1760107123859313000,1.39731298828125,0.00272715138271451,-0.008055098354816437,-0.0639568567276001
1760107123869378800,1.40737890625,0.003446883987635374,-0.0018383972346782684,-0.04725733399391174
1760107123879443700,1.417443603515625,0.0027592559345066547,-0.006479488220065832,-0.02100229449570179
1760107123889509600,1.427509521484375,0.002825208008289337,-0.015566099435091019,0.013378599658608437
1760107123899575800,1.437575927734375,-0.006362431682646275,-0.004811722319573164,0.042844079434871674
1760107123909640700,1.447640625,-0.00954064168035984,0.012603373266756535,0.06495186686515808
1760107123919707000,1.457706787109375,-0.011954263783991337,0.04737413674592972,0.0759563148021698
1760107123929772500,1.4677724609375,-0.0063021499663591385,0.07249042391777039,0.06415227800607681
1760107123939837700,1.477837646484375,-0.005684030242264271,0.07374370843172073,0.020786430686712265
1760107123949903600,1.487903564453125,-0.005462887231260538,0.06992559134960175,-0.022619299590587616
1760107123959969800,1.4979697265625,-0.007567583583295345,0.049414727836847305,-0.04841521009802818
1760107123970035700,1.50803564453125,-0.015439100563526154,0.010615893639624119,-0.0610845722258091
1760107123980100600,1.5181005859375,-0.008131919428706169,-0.010954112745821476,-0.05963927507400513
1760107123990166800,1.528166748046875,0.002095323521643877,-0.024760644882917404,-0.04553461819887161
1760107124000232700,1.538232666015625,0.009910902008414268,-0.020301714539527893,-0.022392282262444496
1760107124010297900,1.5482978515625,0.017924362793564796,0.007025610655546188,-0.006938365288078785
1760107124020363800,1.55836376953125,0.028033455833792686,0.03973056375980377,0.0030165305361151695
1760107124030430000,1.568429931640625,0.029138311743736267,0.05170976370573044,0.004533261060714722
1760107124040494600,1.57849462890625,0.02572227641940117,0.0400531068444252,-0.0033917734399437904
1760107124050560800,1.588560791015625,0.019682927057147026,0.0026512909680604935,-0.01136556826531887
1760107124060626700,1.598626708984375,0.011654028668999672,-0.037587739527225494,-0.022650713101029396
1760107124070691800,1.60869189453125,0.00655317772179842,-0.05733786150813103,-0.029931288212537766
1760107124080757500,1.618757568359375,0.012807345017790794,-0.03845711424946785,-0.029329413548111916
1760107124090823700,1.62882373046875,0.022681470960378647,0.0033758999779820442,-0.024052927270531654
1760107124100888800,1.638888916015625,0.032825715839862823,0.04792499169707298,-0.02072850428521633
1760107124110954800,1.648954833984375,0.029558293521404266,0.06412728875875473,-0.03354434669017792
1760107124121020700,1.659020751953125,0.025871410965919495,0.07214926183223724,-0.0534868985414505
1760107124131085600,1.66908544921875,0.017194636166095734,0.0644274577498436,-0.07460314780473709
1760107124141151700,1.67915185546875,0.0059132203459739685,0.04078870639204979,-0.07537306845188141
1760107124151217700,1.6892177734375,-0.0009572866838425398,0.010594775900244713,-0.05235442519187927
1760107124161283300,1.699283447265625,-0.0031035281717777252,-0.029932143166661263,-0.0205158032476902
1760107124171348200,1.70934814453125,0.008284421637654305,-0.05336327850818634,0.00004069018177688122
1760107124181414100,1.7194140625,0.0315263606607914,-0.05909120664000511,0.006750790867954493
1760107124191480000,1.72947998046875,0.05093041807413101,-0.033230312168598175,-0.008119234815239906
1760107124201545200,1.739545166015625,0.06373569369316101,0.013107890263199806,-0.03620146960020065
1760107124211611400,1.749611328125,0.07338858395814896,0.05767221376299858,-0.05775873363018036
1760107124221677300,1.75967724609375,0.07740835845470428,0.08771906793117523,-0.06198729947209358
1760107124231742200,1.7697421875,0.08019936084747314,0.08680490404367447,-0.046834588050842285
1760107124241808100,1.77980810546875,0.07933463156223297,0.07476075738668442,-0.014119785279035568
1760107124251874300,1.789874267578125,0.07453825324773788,0.04760420322418213,0.030132513493299484
1760107124261939200,1.799939208984375,0.06570960581302643,0.005771269090473652,0.05897800996899605
1760107124272005400,1.81000537109375,0.05561766400933266,-0.02835819683969021,0.06375610083341599
1760107124282071000,1.820071044921875,0.05124608427286148,-0.03767819702625275,0.039795905351638794
1760107124292136200,1.83013623046875,0.05429159477353096,-0.029759682714939117,0.0048873769119381905
1760107124302202000,1.8402021484375,0.0607827827334404,0.0011771945282816887,-0.02547798492014408
1760107124312268300,1.850268310546875,0.06818992644548416,0.03420642390847206,-0.03934348374605179
1760107124322333400,1.86033349609375,0.06732386350631714,0.04995981976389885,-0.037155162543058395
1760107124332399000,1.870399169921875,0.06338842958211899,0.03549543023109436,-0.01988104358315468
1760107124342465300,1.88046533203125,0.054210104048252106,0.006037140265107155,0.0019339738646522164
1760107124352530200,1.8905302734375,0.051269449293613434,-0.009364299476146698,0.03447176143527031
1760107124362596400,1.900596435546875,0.04684460535645485,-0.016035784035921097,0.06514178961515427
1760107124372662300,1.910662353515625,0.0464027039706707,-0.008673017844557762,0.0702381581068039
1760107124382728400,1.920728515625,0.04796971008181572,0.0033210599794983864,0.05116486921906471
1760107124392793000,1.93079296875,0.044299159198999405,0.010936977341771126,0.00820526946336031
1760107124402859300,1.940859375,0.036946170032024384,0.027598513290286064,-0.03648284077644348
1760107124412925200,1.95092529296875,0.028205739334225655,0.04946720600128174,-0.05625667795538902
1760107124422990300,1.960990234375,0.025679729878902435,0.0477294921875,-0.05870305746793747
1760107124433056000,1.971055908203125,0.022593043744564056,0.032837022095918655,-0.03361406922340393
1760107124443122200,1.9811220703125,0.026335583999753,0.0004290137439966202,0.009314222261309624
1760107124453187300,1.991187255859375,0.029896678403019905,-0.031677331775426865,0.0559399239718914
1760107124463253200,2.001253173828125,0.03414468839764595,-0.04163968563079834,0.08831703662872314
1760107124473319200,2.011319091796875,0.034288134425878525,-0.029439330101013184,0.09664952009916306
1760107124483384000,2.021384033203125,0.03583436459302902,-0.004123853053897619,0.08019065111875534
1760107124493450200,2.0314501953125,0.03403565287590027,0.015618856064975262,0.026517437770962715
1760107124503516200,2.04151611328125,0.036290284246206284,0.03026171401143074,-0.032216448336839676
1760107124513581300,2.051581298828125,0.03970368951559067,0.03819216787815094,-0.06968971341848373
1760107124523647200,2.061647216796875,0.03181407228112221,0.03055235743522644,-0.07790663093328476
1760107124533713400,2.07171337890625,0.024018453434109688,0.024261128157377243,-0.05600656196475029
1760107124543778300,2.0817783203125,0.012743961066007614,0.022115420550107956,-0.010746940039098263
1760107124553844200,2.09184423828125,0.00873786024749279,0.006105788052082062,0.03307078778743744
1760107124563910100,2.10191015625,0.005106374155730009,-0.020400121808052063,0.055195797234773636
1760107124573975300,2.111975341796875,0.008229177445173264,-0.03666456788778305,0.06142525374889374
1760107124584041200,2.122041259765625,0.004984382074326277,-0.044761378318071365,0.04200548306107521
1760107124594107100,2.132107177734375,-0.0007650936022400856,-0.03050767071545124,-0.00016302347648888826
1760107124604172300,2.14217236328125,-0.0040413145907223225,-0.003661942668259144,-0.03313242644071579
1760107124614238200,2.15223828125,-0.004439629148691893,0.026928365230560303,-0.056865204125642776
1760107124624304400,2.162304443359375,-0.004173579625785351,0.04410042613744736,-0.05551817640662193
1760107124634369000,2.172369140625,-0.008922462351620197,0.02440749853849411,-0.03501352667808533
1760107124644435200,2.182435302734375,-0.013495909050107002,-0.0012102453038096428,-0.011734566651284695
1760107124654501000,2.192501220703125,-0.015258384868502617,-0.02049984224140644,0.013759649358689785
1760107124664567300,2.2025673828125,-0.013218136504292488,-0.041103120893239975,0.02664082869887352
1760107124674632200,2.212632080078125,-0.010287213139235973,-0.04639604687690735,0.02499443106353283
1760107124684698400,2.222698486328125,-0.014455858618021011,-0.031198985874652863,0.008447944186627865
1760107124694764000,2.232763916015625,-0.011929882690310478,0.0015860926359891891,-0.00456277746707201
1760107124704829200,2.2428291015625,-0.005387028679251671,0.03951110318303108,-0.014830594882369041
1760107124714895400,2.252895263671875,0.006560269743204117,0.05456379055976868,-0.01659419946372509
1760107124724961300,2.262961181640625,0.01675112172961235,0.04448079317808151,0.0006031619850546122
1760107124735026200,2.273026123046875,0.02535022795200348,0.00961909256875515,0.026719748973846436
1760107124745092000,2.283092041015625,0.035613249987363815,-0.020118828862905502,0.05244428291916847
1760107124755158300,2.293158203125,0.03558232635259628,-0.04144252836704254,0.06418045610189438
1760107124765223200,2.30322314453125,0.030971862375736237,-0.04227317124605179,0.06504625082015991
1760107124775289300,2.313289306640625,0.02065558172762394,-0.03522868454456329,0.04346221312880516
1760107124785355300,2.323355224609375,0.015552965924143791,-0.02021031826734543,0.012331723235547543
1760107124795420200,2.333420166015625,0.02010619454085827,-0.005467126611620188,-0.015352646820247173
1760107124805486000,2.343486083984375,0.023857522755861282,0.012109469622373581,-0.02427743189036846
1760107124815552300,2.35355224609375,0.021200114861130714,0.024753620848059654,-0.025280755013227463
1760107124825617400,2.363617431640625,0.011814868077635765,0.032394491136074066,-0.024922026321291924
1760107124835683300,2.373683349609375,0.001167562324553728,0.019788522273302078,-0.01657368801534176
1760107124845749200,2.383749267578125,-0.012018280103802681,0.00016821548342704773,-0.00582650164142251
1760107124855814100,2.393814208984375,-0.016159135848283768,-0.013898961246013641,0.004755816888064146
1760107124865880300,2.40388037109375,-0.01995547115802765,-0.027294395491480827,0.00924856960773468
1760107124875946200,2.4139462890625,-0.017799286171793938,-0.038078103214502335,-0.008179483003914356
1760107124886011100,2.42401123046875,-0.011356566101312637,-0.0399942472577095,-0.0268865916877985
1760107124896077000,2.4340771484375,0.0000028633512556552887,-0.021920692175626755,-0.041830066591501236
1760107124906143200,2.444143310546875,0.013872873038053513,0.00869820173829794,-0.048683445900678635
1760107124916208400,2.45420849609375,0.022969894111156464,0.03184397146105766,-0.03148283809423447
1760107124926274300,2.4642744140625,0.029662152752280235,0.03520701080560684,-0.003516717813909054
1760107124936340200,2.47434033203125,0.03456936404109001,0.01583467423915863,0.03625354915857315
1760107124946406100,2.48440625,0.03347720205783844,-0.016037236899137497,0.06593608111143112
1760107124956471300,2.49447119140625,0.025559352710843086,-0.05139091610908508,0.0736064687371254
1760107124966537200,2.504537109375,0.01919839158654213,-0.06659010797739029,0.05611269921064377
1760107124976603400,2.514603271484375,0.018464621156454086,-0.07002321630716324,0.021441319957375526
1760107124986668300,2.524668212890625,0.025620002299547195,-0.059104789048433304,-0.021214529871940613
1760107124996734200,2.534734130859375,0.02902822010219097,-0.04043753445148468,-0.05155537649989128
1760107125006800100,2.544800048828125,0.03082638792693615,-0.021373294293880463,-0.05935444310307503
1760107125016865300,2.554865234375,0.025087611749768257,-0.007320564240217209,-0.044584598392248154
1760107125026931200,2.56493115234375,0.022302743047475815,0.003089199773967266,-0.015355606563389301
1760107125036997400,2.574997314453125,0.01404588297009468,-0.0070252749137580395,0.016833530738949776
1760107125047062300,2.585062255859375,0.012746792286634445,-0.009147814474999905,0.04215273633599281
1760107125057128200,2.595128173828125,0.016377944499254227,-0.000014000572264194489,0.04736538976430893
1760107125067194000,2.605194091796875,0.02175832726061344,0.0009934734553098679,0.034704990684986115
1760107125077259300,2.61525927734375,0.02536415308713913,0.0012417733669281006,0.007842233404517174
1760107125087325400,2.625325439453125,0.02633381076157093,-0.006875808350741863,-0.017621848732233047
1760107125097391000,2.63539111328125,0.021473009139299393,-0.012595213018357754,-0.03374249488115311
1760107125107456300,2.645456298828125,0.0066724917851388454,-0.010443911887705326,-0.03261997178196907
1760107125117522200,2.655522216796875,-0.010840095579624176,0.006018858402967453,-0.029726466163992882
1760107125127588400,2.66558837890625,-0.022222978994250298,0.0171844270080328,-0.010375937446951866
1760107125137653200,2.6756533203125,-0.02012673206627369,0.0038395682349801064,-0.0030788821168243885
1760107125147719200,2.68571923828125,-0.010713521391153336,-0.010474655777215958,0.001980324974283576
1760107125157785300,2.695785400390625,0.0031539462506771088,-0.024023499339818954,0.009776783175766468
1760107125167850200,2.705850341796875,0.00641205720603466,-0.01947455294430256,0.022439846768975258
1760107125177916400,2.71591650390625,0.0033817868679761887,-0.006787188351154327,0.023336969316005707
1760107125187982300,2.725982421875,-0.003513936186209321,0.01360117457807064,0.022144673392176628
1760107125198047500,2.736047607421875,-0.00914011150598526,0.03169441223144531,0.019458821043372154
1760107125208113400,2.746113525390625,-0.02611137181520462,0.03246113657951355,0.00932389497756958
1760107125218179600,2.7561796875,-0.03831018880009651,0.021420929580926895,-0.008156204596161842
1760107125228244200,2.766244140625,-0.04276219755411148,0.012566185556352139,-0.02162141352891922
1760107125238310400,2.776310302734375,-0.027113348245620728,0.010831834748387337,-0.021224673837423325
1760107125248376300,2.786376220703125,-0.01822717860341072,0.00874444842338562,-0.006963447667658329
1760107125258441500,2.79644140625,-0.020511824637651443,-0.002245488576591015,0.021731127053499222
1760107125268507100,2.806507080078125,-0.014334088191390038,-0.012048584409058094,0.034812573343515396
1760107125278573300,2.8165732421875,-0.015836020931601524,-0.01779918558895588,0.03412728011608124
1760107125288638500,2.826638427734375,-0.014994993805885315,-0.016262009739875793,0.01591179147362709
1760107125298704400,2.836704345703125,-0.01382286474108696,-0.008442198857665062,-0.010037788189947605
1760107125308770300,2.846770263671875,-0.008028093725442886,0.014696144498884678,-0.02491101063787937
1760107125318835200,2.856835205078125,0.002869594842195511,0.02981734275817871,-0.025321554392576218
1760107125328901400,2.8669013671875,0.009524568915367126,0.027752593159675598,-0.007438161876052618
1760107125338967300,2.87696728515625,0.005570643115788698,-0.002691301517188549,0.011908323504030704
1760107125349032400,2.887032470703125,-0.0037224574480205774,-0.03646577522158623,0.03276912868022919
1760107125359098400,2.897098388671875,-0.013346063904464245,-0.05695762857794762,0.04348720237612724
1760107125369164500,2.90716455078125,-0.018081165850162506,-0.05973583459854126,0.04460998997092247
1760107125379230200,2.917230224609375,-0.02308168262243271,-0.053387273102998734,0.030925095081329346
1760107125389295400,2.92729541015625,-0.02248167246580124,-0.02297637052834034,0.003708123229444027
1760107125399361300,2.937361328125,-0.009113574400544167,0.005390463396906853,-0.017841927707195282
1760107125409426400,2.947426513671875,0.002689022570848465,0.016404498368501663,-0.02323935553431511
1760107125419492400,2.957492431640625,0.002399617340415716,0.017110630869865417,-0.021042969077825546
1760107125429558300,2.967558349609375,-0.002629496157169342,0.004348498769104481,-0.000563792884349823
1760107125439624200,2.977624267578125,-0.012591160833835602,-0.010039719752967358,0.01382165215909481
1760107125449689300,2.987689453125,-0.01594754308462143,-0.013231518678367138,0.02362474799156189
1760107125459755500,2.997755615234375,-0.021430790424346924,-0.013397246599197388,0.01982291042804718
1760107125469821400,3.007821533203125,-0.019316771999001503,-0.011834236793220043,0.009428326971828938
1760107125479886300,3.01788623046875,-0.015564240515232086,-0.013459306210279465,0.0008936395170167089
1760107125489952300,3.0279521484375,-0.010419545695185661,-0.00874231569468975,0.0024196309968829155
1760107125500018400,3.038018310546875,-0.011864297091960907,-0.00440045865252614,0.012258540838956833
1760107125510083300,3.048083251953125,-0.014190303161740303,-0.0014683185145258904,0.03413214534521103
1760107125520149500,3.0581494140625,-0.01747937873005867,0.0028042225167155266,0.03854900598526001
1760107125530215200,3.068215087890625,-0.01711585745215416,-0.00020568165928125381,0.026915786787867546
1760107125540280300,3.0782802734375,-0.01604553870856762,0.0006935093551874161,0.0049606021493673325
1760107125550346500,3.088346435546875,-0.010766355320811272,0.0109184505417943,-0.012314790859818459
1760107125560412400,3.098412353515625,-0.007562115788459778,0.011302828788757324,-0.027730535715818405
1760107125570477300,3.108477294921875,-0.008398348465561867,0.008659375831484795,-0.0353224091231823
1760107125580543200,3.118543212890625,-0.013881253078579903,-0.013531846925616264,-0.026881393045186996
1760107125590609400,3.128609375,-0.014741187915205956,-0.03089272789657116,-0.019908703863620758
1760107125600674300,3.13867431640625,-0.015523914247751236,-0.040526650846004486,-0.005486876238137484
1760107125610740500,3.148740478515625,-0.018903732299804688,-0.01725434884428978,0.0057428753934800625
1760107125620806400,3.158806396484375,-0.020560575649142265,0.009595676325261593,0.0067442841827869415
1760107125630871300,3.168871337890625,-0.014829453080892563,0.030282311141490936,0.0013258164981380105
1760107125640937200,3.178937255859375,0.0011716973967850208,0.041718050837516785,-0.010798146016895771
1760107125651003400,3.18900341796875,0.02245275117456913,0.03007923811674118,-0.012843186967074871
1760107125661068500,3.199068603515625,0.033643461763858795,0.001640421338379383,0.00046633603051304817
1760107125671134500,3.209134521484375,0.03401896730065346,-0.011033029295504093,0.02525903470814228
1760107125681200400,3.219200439453125,0.02669331803917885,-0.01569938473403454,0.04418378323316574
1760107125691265300,3.229265380859375,0.017933649942278862,-0.014589113183319569,0.05007069930434227
1760107125701331500,3.23933154296875,0.0037961509078741074,-0.012266850098967552,0.04235488176345825
1760107125711397400,3.2493974609375,-0.0026369811967015266,-0.01375768706202507,0.020547321066260338
1760107125721462300,3.259462158203125,-0.0035484894178807735,-0.008464690297842026,0.001198595855385065
1760107125731528200,3.269528076171875,-0.0030717835761606693,0.015556755475699902,-0.013714573346078396
1760107125741594400,3.279594482421875,0.0021992670372128487,0.04569447785615921,-0.016002481803297997
1760107125751659500,3.289659423828125,0.0037233945913612843,0.06132243573665619,-0.009417549706995487
1760107125761725400,3.299725341796875,0.003194900695234537,0.05925177410244942,0.01781485788524151
1760107125771791400,3.309791259765625,-0.0024981386959552765,0.026569724082946777,0.05188201367855072
1760107125781856300,3.319856201171875,-0.0009834880474954844,-0.018984749913215637,0.08096574246883392
1760107125791922400,3.32992236328125,0.0024256245233118534,-0.056104958057403564,0.09774339199066162
1760107125801988400,3.33998828125,0.00045505259186029434,-0.059241749346256256,0.10370459407567978
1760107125812053500,3.350053466796875,-0.011355267837643623,-0.06165403872728348,0.06712847203016281
1760107125822119400,3.360119384765625,-0.005691245198249817,-0.024385925382375717,0.02242504432797432
1760107125832185300,3.370185302734375,0.0019957032054662704,0.020924830809235573,-0.02072349190711975
1760107125842250200,3.380250244140625,0.0032726768404245377,0.04254693537950516,-0.051025331020355225
1760107125852316400,3.39031640625,0.0008068559691309929,0.039336226880550385,-0.0534173808991909
1760107125862382300,3.40038232421875,0.004091888200491667,0.011060049757361412,-0.03894577920436859
1760107125872447200,3.410447265625,0.0012913080863654613,-0.03317585587501526,-0.019348109140992165
1760107125882513400,3.420513427734375,0.004653632640838623,-0.04201933741569519,-0.0024353167973458767
1760107125892579300,3.430579345703125,0.002752135507762432,-0.021594226360321045,0.007379496470093727
1760107125902644500,3.44064453125,0.0009620347991585732,-0.001305283047258854,0.0014723754720762372
1760107125912710400,3.45071044921875,-0.002376237418502569,0.026860572397708893,-0.009496386162936687
1760107125922776600,3.460776611328125,-0.012237021699547768,0.015684418380260468,-0.028050029650330544
1760107125932841200,3.47084130859375,-0.015484746545553207,0.008477370254695415,-0.03345704451203346
1760107125942907400,3.480907470703125,-0.004886282607913017,0.015793226659297943,-0.023339932784438133
1760107125952973300,3.490973388671875,0.005346380639821291,0.011058925651013851,-0.02020139805972576
1760107125963038500,3.50103857421875,-0.0038626352325081825,0.017922189086675644,-0.015195447951555252
1760107125973104000,3.511104248046875,-0.018290843814611435,0.007392316125333309,-0.013042815029621124
1760107125983170300,3.52117041015625,-0.033062711358070374,-0.009135753847658634,-0.031105056405067444
1760107125993235500,3.5312353515625,-0.031554825603961945,-0.031613364815711975,-0.044962815940380096
1760107126003301400,3.54130126953125,-0.03061390481889248,-0.06132769584655762,-0.053358931094408035
1760107126013367300,3.5513671875,-0.02858830615878105,-0.0638614296913147,-0.05205851048231125
1760107126023432200,3.56143212890625,-0.02276511676609516,-0.04354403540492058,-0.02992905303835869
1760107126033498400,3.571498291015625,-0.01931951940059662,-0.00632502930238843,-0.014696304686367512
1760107126043564300,3.581564208984375,-0.012251688167452812,0.03249536454677582,-0.0017677717842161655
1760107126053629400,3.59162939453125,0.004831425379961729,0.053774818778038025,0.008057162165641785
1760107126063695400,3.6016953125,0.007282876875251532,0.03837998956441879,0.004079591948539019
1760107126073761500,3.611761474609375,0.009008871391415596,0.018418528139591217,-0.008133132010698318
1760107126083826200,3.621826171875,0.017331866547465324,0.007609630934894085,-0.0076653603464365005
1760107126093892400,3.631892333984375,0.017990732565522194,0.0010705050081014633,-0.0008308897376991808
1760107126103958300,3.641958251953125,0.009055635891854763,0.005676089785993099,0.0027066231705248356
1760107126114023400,3.6520234375,0.00506755243986845,0.01628958433866501,0.01195365097373724
1760107126124089300,3.66208935546875,0.0023479280062019825,0.009739595465362072,0.014336604624986649
1760107126134155300,3.6721552734375,-0.0005770218558609486,-0.014324462041258812,0.0046347095631062984
1760107126144220400,3.682220458984375,-0.0021338975057005882,-0.026940230280160904,-0.008227474987506866
1760107126154286300,3.692286376953125,0.00010475562885403633,-0.019838377833366394,-0.001823637867346406
1760107126164352800,3.702352783203125,0.0013994891196489334,-0.006538461893796921,0.01616070605814457
1760107126174417700,3.712417724609375,0.0015425006859004498,0.013046957552433014,0.052717920392751694
1760107126184483800,3.72248388671875,0.002865300979465246,0.032456230372190475,0.08218961209058762
1760107126194549800,3.7325498046875,0.0027587744407355785,0.025187931954860687,0.0941205695271492
1760107126204614700,3.74261474609375,0.003919227048754692,0.0065651461482048035,0.07100239396095276
1760107126214680600,3.7526806640625,0.0037232190370559692,-0.011691355146467686,0.023808518424630165
1760107126224746800,3.762746826171875,-0.0005622708704322577,-0.01674014888703823,-0.023012297227978706
1760107126234812000,3.77281201171875,-0.011633297428488731,-0.0034078313037753105,-0.05939507111907005
1760107126244877800,3.7828779296875,-0.020380347967147827,0.009435595944523811,-0.06573998183012009
1760107126254943700,3.79294384765625,-0.0233409833163023,0.01207638531923294,-0.038272675126791
1760107126265008600,3.803008544921875,-0.01993739977478981,0.0048055024817585945,0.009419120848178864
1760107126275074800,3.81307470703125,-0.014316265471279621,-0.0024034082889556885,0.054629743099212646
1760107126285140700,3.823140625,-0.013685287907719612,-0.005342026706784964,0.08008214086294174
1760107126295206000,3.833205810546875,-0.015008878894150257,0.004676252603530884,0.06253936886787415
1760107126305271600,3.843271484375,-0.020820163190364838,0.006442993879318237,0.024854306131601334
1760107126315337700,3.853337646484375,-0.030619796365499496,0.009904837235808372,-0.016669968143105507
1760107126325402600,3.863402587890625,-0.033722713589668274,0.017139824107289314,-0.03927163407206535
1760107126335468800,3.87346875,-0.03623487055301666,0.011852916330099106,-0.03165499493479729
1760107126345534700,3.88353466796875,-0.0356791689991951,0.00748840719461441,-0.009822158142924309
1760107126355599600,3.893599609375,-0.02364301308989525,0.002770084887742996,0.027851717546582222
1760107126365665800,3.903665771484375,-0.011112837120890617,0.0006549470126628876,0.059135645627975464
1760107126375731700,3.913731689453125,-0.0068054404109716415,-0.0034993174485862255,0.06900292634963989
1760107126385796900,3.923796875,-0.006918886676430702,0.0015454543754458427,0.06311658769845963
1760107126395862800,3.93386279296875,-0.008246472105383873,0.005615296773612499,0.04844336211681366
1760107126405929000,3.943928955078125,-0.005086357705295086,0.006162735633552074,0.031724121421575546
1760107126415993600,3.95399365234375,-0.0035286748316138983,0.01154471654444933,0.022775903344154358
1760107126426059800,3.964059814453125,-0.0005991302896291018,0.01040144544094801,0.017629295587539673
1760107126436125700,3.974125732421875,-0.002358414465561509,0.006641327403485775,0.018538231030106544
1760107126446190800,3.98419091796875,-0.005322846584022045,0.00968316849321127,0.01486924383789301
1760107126456256500,3.994256591796875,-0.013553878292441368,0.010661079548299313,0.002419498283416033
1760107126466322700,4.00432275390625,-0.014423254877328873,0.005972200073301792,-0.010383885353803635
1760107126476387800,4.014387939453125,-0.011183518916368484,0.012797349132597446,-0.009973492473363876
1760107126486453800,4.024453857421875,-0.012388237752020359,0.01912759430706501,-0.0007632338092662394
1760107126496519700,4.034519775390625,-0.019154265522956848,0.020049314945936203,0.010681434534490108
1760107126506584600,4.04458447265625,-0.01938304677605629,0.02020239271223545,0.026557432487607002
1760107126516650800,4.054650634765625,-0.013417566195130348,0.02049853466451168,0.039701197296381
1760107126526716700,4.064716552734375,-0.010101642459630966,0.00915479939430952,0.04577794298529625
1760107126536781800,4.07478173828125,-0.003964654635637999,0.0010337568819522858,0.04128678888082504
1760107126546847700,4.08484765625,0.0006898269057273865,0.0008152900263667107,0.017207590863108635
1760107126556913700,4.09491357421875,0.0008647963404655457,0.014805939979851246,0.0012208996340632439
1760107126566978800,4.104978759765625,-0.0009897202253341675,0.01623554155230522,-0.0068121496587991714
1760107126577044700,4.115044677734375,-0.006878768093883991,0.0025823134928941727,-0.005294946953654289
1760107126587110700,4.125110595703125,-0.011381654068827629,-0.004030153620988131,0.00909931119531393
1760107126597175800,4.13517578125,-0.016056034713983536,-0.0011688536033034325,0.0331316739320755
1760107126607241700,4.14524169921875,-0.02264750748872757,-0.0017793439328670502,0.04482447728514671
1760107126617306600,4.155306640625,-0.0250006765127182,0.0011312244459986687,0.04078952223062515
1760107126627372800,4.165372802734375,-0.019974607974290848,0.009373802691698074,0.01820838637650013
1760107126637438700,4.175438720703125,-0.0019090562127530575,0.021048035472631454,-0.009218709543347359
1760107126647503600,4.185503662109375,0.010796090587973595,0.024455497041344643,-0.02458297647535801
1760107126657569500,4.195569580078125,0.009330553002655506,0.018086014315485954,-0.01683184690773487
1760107126667635700,4.2056357421875,-0.003256599185988307,0.0016352403908967972,0.0031347989570349455
1760107126677700900,4.215700927734375,-0.009251108393073082,-0.00485994340851903,0.02971474453806877
1760107126687766800,4.225766845703125,-0.012738604098558426,-0.020430665463209152,0.03549177572131157
1760107126697832700,4.235832763671875,-0.020842337980866432,-0.024168945848941803,0.022038286551833153
1760107126707897600,4.245897705078125,-0.029158446937799454,0.004067365080118179,0.007674821652472019
1760107126717963800,4.2559638671875,-0.02770063281059265,0.039530813694000244,-0.001641980605199933
1760107126728029700,4.26602978515625,-0.02097019925713539,0.0670124739408493,-0.009274926036596298
1760107126738094800,4.2760947265625,-0.013087509199976921,0.06014551222324371,-0.008648552000522614
1760107126748160800,4.286160888671875,-0.0032359177712351084,0.021875299513339996,-0.000014594756066799164
1760107126758226700,4.296226806640625,0.006635088473558426,-0.010530843399465084,0.02113410085439682
1760107126768291600,4.30629150390625,0.011400261893868446,-0.027529001235961914,0.0413704514503479
1760107126778357800,4.316357666015625,0.00856639165431261,-0.02207537740468979,0.04420272260904312
1760107126788423700,4.326423583984375,0.0077956728637218475,-0.0032966304570436478,0.033566590398550034
1760107126798488600,4.336488525390625,0.003185741137713194,0.021505124866962433,0.0070636086165905
1760107126808554800,4.3465546875,0.0007532141171395779,0.039796724915504456,-0.02087477408349514
1760107126818620700,4.35662060546875,0.0024949214421212673,0.04174589365720749,-0.04903796687722206
1760107126828685800,4.366685791015625,0.00933578796684742,0.030219409614801407,-0.05724578723311424
1760107126838751700,4.376751708984375,0.02005208283662796,0.01026913896203041,-0.038244929164648056
1760107126848818000,4.38681787109375,0.023335497826337814,-0.015933489426970482,-0.002497544512152672
1760107126858882600,4.396882568359375,0.020253952592611313,-0.024624183773994446,0.035145971924066544
1760107126868948700,4.40694873046875,0.015189961530268192,-0.0025717196986079216,0.05340122431516647
1760107126879014700,4.4170146484375,0.0156853087246418,0.0020067868754267693,0.04635290428996086
1760107126889079800,4.427079833984375,0.01849191263318062,0.015306225046515465,0.026331501081585884
1760107126899145700,4.437145751953125,0.018831733614206314,0.0301408302038908,-0.011136512272059917
1760107126909211600,4.447211669921875,0.02249985933303833,0.04197968170046806,-0.047162044793367386
1760107126919276800,4.45727685546875,0.032636117190122604,0.042159710079431534,-0.056960880756378174
1760107126929342700,4.4673427734375,0.04158302769064903,0.029648181051015854,-0.044460050761699677
1760107126939409000,4.477408935546875,0.04037235304713249,-0.006091706454753876,-0.0208404790610075
1760107126949473500,4.4874736328125,0.0334838405251503,-0.03513316065073013,0.0053319064900279045
1760107126959539700,4.497539794921875,0.03271205350756645,-0.04943886399269104,0.03325062245130539
1760107126969605600,4.507605712890625,0.029067501425743103,-0.045260146260261536,0.04772979021072388
1760107126979670800,4.5176708984375,0.020172543823719025,-0.03509938716888428,0.038766391575336456
1760107126989736700,4.52773681640625,0.020225021988153458,-0.0027488023042678833,0.009103433229029179
1760107126999803000,4.537802978515625,0.037411995232105255,0.040410116314888,-0.029766466468572617
1760107127009867800,4.54786767578125,0.061008937656879425,0.052356742322444916,-0.055484838783741
1760107127019933700,4.55793359375,0.07197024673223495,0.039579957723617554,-0.059273187071084976
1760107127029999600,4.56799951171875,0.06178867444396019,0.025881405919790268,-0.04008975252509117
1760107127040064800,4.578064697265625,0.03418394550681114,0.011942952871322632,-0.01967981830239296
1760107127050131000,4.588130859375,0.002496349159628153,-0.0010405424982309341,-0.010367820970714092
1760107127060196600,4.598196533203125,-0.018308797851204872,-0.007563956081867218,-0.01477588526904583
1760107127070261800,4.60826171875,-0.023285984992980957,-0.008780966512858868,-0.028831560164690018
1760107127080327700,4.61832763671875,-0.020864639431238174,-0.023223821073770523,-0.04129808396100998
1760107127090392800,4.628392822265625,-0.01802987791597843,-0.029707588255405426,-0.03974871709942818
1760107127100458500,4.63845849609375,-0.008226782083511353,-0.02107282169163227,-0.03272862359881401
1760107127110524700,4.648524658203125,-0.0027430104091763496,-0.0013714339584112167,-0.028170756995677948
1760107127120589800,4.65858984375,0.004744200501590967,0.023502225056290627,-0.01651809550821781
1760107127130655700,4.66865576171875,0.012067446485161781,0.031295184046030045,-0.008968936279416084
1760107127140722000,4.678721923828125,0.018472881987690926,0.027940932661294937,0.005250479560345411
1760107127150786600,4.68878662109375,0.023359736427664757,0.03171679750084877,0.02294873632490635
1760107127160853000,4.69885302734375,0.021973026916384697,0.02918679639697075,0.03608797490596771
1760107127170919000,4.7089189453125,0.020758461207151413,0.01849033124744892,0.04068834334611893
1760107127180983800,4.71898388671875,0.015255570411682129,0.009537583217024803,0.03311431407928467
1760107127191049700,4.7290498046875,0.006736946292221546,-0.00011886283755302429,0.01982235349714756
1760107127201116000,4.739115966796875,0.002400788012892008,-0.014754530973732471,0.004778954200446606
1760107127211180800,4.749180908203125,0.00008937111124396324,-0.026449335739016533,-0.0026714131236076355
1760107127221247000,4.7592470703125,0.0007833908312022686,-0.03317514806985855,0.000962203717790544
1760107127231312600,4.769312744140625,0.0018078857101500034,-0.02349615842103958,0.013592299073934555
1760107127241377800,4.779377685546875,0.008540889248251915,-0.012618744745850563,0.02560129202902317
1760107127251444000,4.78944384765625,0.020730750635266304,-0.009866045787930489,0.03206676244735718
1760107127261510000,4.799510009765625,0.02583177015185356,-0.012512961402535439,0.03426626697182655
1760107127271575000,4.809574951171875,0.025914127007126808,-0.0037285066209733486,0.026632534340023994
1760107127281640700,4.819640625,0.017038609832525253,0.011882677674293518,0.013208338059484959
1760107127291707000,4.829706787109375,0.011007104068994522,0.02247939631342888,0.004378307610750198
1760107127301771800,4.839771728515625,0.0053971558809280396,0.015164223499596119,-0.01907695271074772
1760107127311838000,4.849837890625,0.0009861444123089314,-0.007059375289827585,-0.04087189584970474
1760107127321903900,4.85990380859375,0.0018045338802039623,-0.030375350266695023,-0.0560268834233284
1760107127331968800,4.86996875,-0.003630078164860606,-0.043131500482559204,-0.05914994701743126
1760107127342035000,4.880034912109375,-0.010426199063658714,-0.029178135097026825,-0.03916904702782631
1760107127352100900,4.890100830078125,-0.012728776782751083,-0.0007996503263711929,-0.01074415072798729
1760107127362166000,4.900166015625,-0.0049243830144405365,0.024471085518598557,0.0188001599162817
1760107127372232000,4.91023193359375,0.010712025687098503,0.031487803906202316,0.03196332976222038
1760107127382297900,4.9202978515625,0.022764161229133606,0.019998658448457718,0.037690721452236176
1760107127392362800,4.93036279296875,0.03013095259666443,0.012363906018435955,0.03482021018862724
1760107127402429000,4.940428955078125,0.02549998089671135,-0.0008877171203494072,0.03915397450327873
1760107127412494800,4.950494873046875,0.015706326812505722,0.0009055715054273605,0.04251374676823616
1760107127422559700,4.960559814453125,0.000020574312657117844,0.008243379183113575,0.04609676077961922
1760107127432625700,4.970625732421875,-0.011482225731015205,0.008710584603250027,0.04297336935997009
1760107127442690800,4.98069091796875,-0.015268707647919655,0.010730859823524952,0.04275232553482056
1760107127452757000,4.990757080078125,-0.016472920775413513,0.013230467215180397,0.034780945628881454
1760107127462823000,5.000822998046875,-0.01897495985031128,0.01891232095658779,0.02824981138110161
1760107127472887800,5.0108876953125,-0.013585598208010197,0.02142036147415638,0.019021879881620407
1760107127482953700,5.02095361328125,-0.007462725043296814,0.027115264907479286,0.01783384382724762
1760107127493020000,5.03102001953125,-0.009282214567065239,0.01948898285627365,0.013726281002163887
1760107127503084800,5.041084716796875,-0.01403941959142685,0.00654442235827446,0.012284179218113422
1760107127513151000,5.05115087890625,-0.009946934878826141,-0.0003153998404741287,0.019956788048148155
1760107127523217000,5.061216796875,-0.007481646724045277,-0.005855041090399027,0.014367878437042236
1760107127533281800,5.07128173828125,-0.0038911965675652027,-0.006801000330597162,0.0017464130651205778
1760107127543347700,5.08134765625,0.0018822704441845417,-0.0014722812920808792,-0.022639086470007896
1760107127553414000,5.091413818359375,0.006172201130539179,0.017568279057741165,-0.0435626357793808
1760107127563479000,5.10147900390625,0.0020131426863372326,0.019904669374227524,-0.053598225116729736
1760107127573544700,5.111544677734375,-0.0034915106371045113,0.01987922564148903,-0.04789397493004799
1760107127583611000,5.12161083984375,-0.002216123044490814,0.00999011006206274,-0.03838729113340378
1760107127593675800,5.13167578125,0.0005350923165678978,-0.004295795690268278,-0.017677199095487595
1760107127603742000,5.141741943359375,0.004186286590993404,-0.008971241302788258,-0.0004393574199639261
1760107127613807900,5.151807861328125,-0.004253096412867308,0.0005786232650279999,0.00972332525998354
1760107127623872800,5.161872802734375,-0.011121388524770737,0.01712697371840477,0.013798760250210762
1760107127633938700,5.171938720703125,-0.01183051522821188,0.026564059779047966,0.015771400183439255
1760107127644004900,5.1820048828125,-0.006302325055003166,0.031843774020671844,0.0151101378723979
1760107127654070000,5.192070068359375,-0.006238740868866444,0.03135906532406807,0.015052929520606995
1760107127664136000,5.202135986328125,-0.011036159470677376,0.028986990451812744,0.0014423112152144313
1760107127674201900,5.212201904296875,-0.0045690215192735195,0.035366520285606384,-0.009754803963005543
1760107127684266800,5.222266845703125,0.013595866970717907,0.02824043482542038,-0.009985966607928276
1760107127694333000,5.2323330078125,0.025210008025169373,0.004838881082832813,0.01271773036569357
1760107127704397800,5.242397705078125,0.014805037528276443,-0.018592674285173416,0.04620218649506569
1760107127714464000,5.252464111328125,-0.003459382802248001,-0.03129971772432327,0.07019220292568207
1760107127724529700,5.26252978515625,-0.015415377914905548,-0.030509555712342262,0.0720801129937172
1760107127734594800,5.2725947265625,-0.02160758525133133,-0.019547417759895325,0.04391804710030556
1760107127744660700,5.28266064453125,-0.021208377555012703,0.012180950492620468,0.007249248214066029
1760107127754727000,5.292726806640625,-0.020901847630739212,0.04148691147565842,-0.023965662345290184
1760107127764792000,5.3027919921875,-0.005080007947981358,0.04331010580062866,-0.03364092484116554
1760107127774857700,5.312857666015625,0.010348504409193993,0.017343755811452866,-0.021647701039910316
1760107127784924000,5.322923828125,0.01934785768389702,-0.016581455245614052,0.008917932398617268
1760107127794988800,5.33298876953125,0.013866325840353966,-0.04213191568851471,0.04226719215512276
1760107127805055000,5.343054931640625,0.0005513196811079979,-0.04761403053998947,0.05113711580634117
1760107127815121000,5.353120849609375,-0.025683116167783737,-0.037749238312244415,0.009231457486748695
1760107127825185800,5.363185791015625,-0.027111105620861053,-0.003985680639743805,-0.0600176565349102
1760107127835251700,5.373251708984375,-0.012664061971008778,0.05404522269964218,-0.12316736578941345
1760107127845318000,5.38331787109375,0.0024728132411837578,0.089756079018116,-0.14886394143104553
1760107127855383000,5.393383056640625,0.0019282926805317402,0.1205115020275116,-0.1447554975748062
1760107127865449000,5.403448974609375,-0.003430786542594433,0.07963012158870697,-0.09943488985300064
1760107127875514600,5.4135146484375,-0.004160776734352112,0.003219183534383774,-0.03295003995299339
1760107127885579800,5.423579833984375,-0.0057890331372618675,-0.05377672612667084,0.03577256575226784
1760107127895646000,5.43364599609375,-0.004471645690500736,-0.08676595985889435,0.09294362366199493
1760107127905710800,5.4437109375,-0.006958771962672472,-0.08100900053977966,0.11432108283042908
1760107127915777000,5.453777099609375,-0.0040962230414152145,-0.04723992198705673,0.09524208307266235
1760107127925842700,5.4638427734375,0.003814697265625,-0.002040223218500614,0.042294975370168686
1760107127935907800,5.473907958984375,0.010944424197077751,0.04056474566459656,-0.020311575382947922
1760107127945973800,5.483973876953125,0.01630270481109619,0.08263257145881653,-0.06944902241230011
1760107127956040000,5.4940400390625,0.018444202840328217,0.08448177576065063,-0.08087363094091415
1760107127966104800,5.504104736328125,0.012399093247950077,0.057048022747039795,-0.060663167387247086
1760107127976170800,5.514170654296875,0.00480536138638854,0.014327669516205788,-0.007941857911646366
1760107127986237000,5.52423681640625,-0.004886681213974953,-0.02074616216123104,0.05601688474416733
1760107127996301800,5.5343017578125,-0.012687980197370052,-0.03319869935512543,0.10387945920228958
1760107128006368000,5.544367919921875,-0.014322362840175629,-0.016585100442171097,0.1033412367105484
1760107128016434000,5.554433837890625,-0.01216370053589344,0.024243373423814774,0.06894013285636902
1760107128026498800,5.564498779296875,0.0005528926849365234,0.08270854502916336,0.012959688901901245
1760107128036564700,5.574564697265625,0.004501319956034422,0.11552482098340988,-0.04019412770867348
1760107128046631000,5.584630859375,0.009787429124116898,0.12812770903110504,-0.06127491220831871
1760107128056696000,5.594696044921875,0.012065863236784935,0.10915973782539368,-0.04669248312711716
1760107128066762000,5.604761962890625,-0.0004259594716131687,0.06520852446556091,0.001598081667907536
1760107128076827600,5.61482763671875,-0.016136057674884796,0.008101534098386765,0.047456007450819016
1760107128086892800,5.624892822265625,-0.025689614936709404,-0.03409465402364731,0.07431238889694214
1760107128096959000,5.634958984375,-0.02573930099606514,-0.044084735214710236,0.07241876423358917
1760107128107024000,5.64502392578125,-0.01184399239718914,-0.02298930287361145,0.05894769728183746
1760107128117089800,5.65508984375,-0.009595664218068123,-0.0040411618538200855,0.02792097069323063
1760107128127155700,5.66515576171875,-0.010332826524972916,0.01929372176527977,-0.002492860658094287
1760107128137220900,5.675220947265625,-0.01125996932387352,0.030429549515247345,-0.024582164362072945
1760107128147286800,5.685286865234375,-0.013987579382956028,0.03083834797143936,-0.033673401921987534
1760107128157353000,5.69535302734375,-0.01513834111392498,0.01803663745522499,-0.028106944635510445
1760107128167417000,5.7054169921875,-0.01843799650669098,0.008408510126173496,-0.0039036041125655174
1760107128177483000,5.71548291015625,-0.019683383405208588,-0.005768793635070324,0.02123616263270378
1760107128187549000,5.725548828125,-0.02084505371749401,-0.0211781095713377,0.04361603781580925
1760107128197614000,5.735614013671875,-0.019125957041978836,-0.029631298035383224,0.05580904334783554
1760107128207680000,5.745679931640625,-0.015283813700079918,-0.03328835219144821,0.04785791039466858
1760107128217746000,5.755745849609375,-0.015820303931832314,-0.021390490233898163,0.012112682685256004
1760107128227811000,5.76581103515625,-0.008340816013514996,0.0011811302974820137,-0.026233641430735588
1760107128237877000,5.775876953125,-0.011649144813418388,0.017645029351115227,-0.05898291617631912
1760107128247943000,5.78594287109375,-0.018443135544657707,0.02206987328827381,-0.07846260070800781
1760107128258008000,5.796008056640625,-0.023593690246343613,0.020177962258458138,-0.07292962074279785
1760107128268074000,5.806073974609375,-0.02699454501271248,-0.005121269263327122,-0.046354204416275024
1760107128278139000,5.816138916015625,-0.02214033342897892,-0.03653116524219513,-0.009767170995473862
1760107128288204800,5.826204833984375,-0.018901396542787552,-0.05498713627457619,0.01599811390042305
1760107128298271000,5.83627099609375,-0.009986607357859612,-0.062472887337207794,0.0239297766238451
1760107128308336000,5.846336181640625,0.0014159833081066608,-0.04739540070295334,0.007431227248162031
1760107128318402000,5.856402099609375,0.011101960204541683,-0.023999463766813278,-0.017078999429941177
1760107128328468000,5.866468017578125,0.005796143785119057,0.004735779017210007,-0.03955554962158203
1760107128338532900,5.876532958984375,0.0011116284877061844,0.030386170372366905,-0.05147065594792366
1760107128348599000,5.88659912109375,-0.007838723249733448,0.0393354594707489,-0.04684820771217346
1760107128358665000,5.8966650390625,-0.016695404425263405,0.03246592730283737,-0.03417985513806343
1760107128368730000,5.906730224609375,-0.01846214383840561,0.01301872543990612,-0.022643305361270905
1760107128378796000,5.916796142578125,-0.014979252591729164,-0.01131015457212925,-0.015932587906718254
1760107128388862000,5.926862060546875,-0.005090936087071896,-0.034812550991773605,-0.011179644614458084
1760107128398926800,5.9369267578125,0.0024846773594617844,-0.04009051248431206,0.0026734594721347094
1760107128408993000,5.946992919921875,0.002829024102538824,-0.03163311257958412,0.019898518919944763
1760107128419059000,5.957058837890625,-0.003066566539928317,-0.0027415743097662926,0.030703382566571236
1760107128429123800,5.967123779296875,-0.0088107381016016,0.02739289030432701,0.03178701922297478
1760107128439190000,5.97718994140625,-0.007065936457365751,0.024394046515226364,0.023536523804068565
1760107128449256000,5.987255859375,-0.0021465453319251537,0.002369438298046589,0.0054685743525624275
1760107128459321000,5.997321044921875,0.0023693861439824104,-0.014239737764000893,-0.011192343197762966
1760107128469387000,6.007386962890625,0.0046759494580328465,-0.026718510314822197,-0.013120471499860287
1760107128479452000,6.017451904296875,0.009138323366641998,-0.026384606957435608,-0.00010018039029091597
1760107128489517800,6.027517822265625,0.009908244013786316,-0.011243736371397972,0.01696908473968506
1760107128499584000,6.037583984375,-0.00009263772517442703,-0.008806395344436169,0.029164928942918777
1760107128509649200,6.047649169921875,-0.006173699628561735,-0.014749504625797272,0.03428458794951439
1760107128519715000,6.057715087890625,-0.009057098999619484,-0.011438715271651745,0.020755771547555923
1760107128529781000,6.067781005859375,-0.012175660580396652,-0.005042601842433214,0.0020641102455556393
1760107128539846000,6.077845947265625,-0.001514232950285077,0.007803207263350487,-0.01744838058948517
1760107128549912000,6.087912109375,0.007645975798368454,0.011462923139333725,-0.02438671514391899
1760107128559978000,6.09797802734375,0.010622318834066391,0.005167262628674507,-0.012833964079618454
1760107128570043100,6.108043212890625,0.00886729545891285,-0.007558119483292103,0.006390596739947796
1760107128580108800,6.11810888671875,0.004754310008138418,-0.02719067595899105,0.023314718157052994
1760107128590175000,6.128175048828125,-0.0016242268029600382,-0.03930779546499252,0.03125679865479469
1760107128600239900,6.138239990234375,-0.005734975449740887,-0.041410818696022034,0.025174206122756004
1760107128610306000,6.14830615234375,-0.009570460766553879,-0.029670272022485733,0.01696367934346199
1760107128620371000,6.158370849609375,-0.012371059507131577,-0.012507054954767227,-0.002367311390116811
1760107128630436900,6.168436767578125,-0.013858435675501823,0.008247226476669312,-0.027716610580682755
1760107128640503000,6.1785029296875,-0.008173027075827122,0.016047056764364243,-0.05419807881116867
1760107128650568000,6.18856787109375,0.003422110341489315,0.018396496772766113,-0.0540287010371685
1760107128660634000,6.198634033203125,0.0005367239937186241,0.013035315088927746,-0.040531955659389496
1760107128670700000,6.208699951171875,-0.0041094268672168255,0.007396603934466839,-0.004838671535253525
1760107128680765000,6.218764892578125,-0.011937836185097694,-0.012885130941867828,0.028614535927772522
1760107128690830800,6.228830810546875,-0.014579159207642078,-0.031867608428001404,0.04407045990228653
1760107128700897000,6.23889697265625,0.0016233702190220356,-0.03250781446695328,0.04219762235879898
1760107128710962200,6.248962158203125,0.018733913078904152,-0.02048524096608162,0.02553688921034336
1760107128721028000,6.259028076171875,0.029142025858163834,0.0009997524321079254,-0.0031457957811653614
1760107128731093800,6.26909375,0.028530828654766083,0.03243597224354744,-0.03475725278258324
1760107128741159000,6.279158935546875,0.023613397032022476,0.054928943514823914,-0.04319389536976814
1760107128751225000,6.28922509765625,0.0170215405523777,0.04734612628817558,-0.03850780054926872
1760107128761291000,6.299291015625,0.00700758071616292,0.00869386363774538,-0.013187620788812637
1760107128771356000,6.30935595703125,-0.0033446592278778553,-0.02737945318222046,0.011685505509376526
1760107128781421800,6.319421875,-0.005113142542541027,-0.04135207086801529,0.03536093607544899
1760107128791487000,6.329487060546875,-0.012943368405103683,-0.04574016109108925,0.037074677646160126
1760107128801553000,6.339552978515625,-0.012940085493028164,-0.019213460385799408,0.02421071007847786
1760107128811619000,6.349619140625,-0.005250473972409964,0.021321982145309448,0.006958751939237118
1760107128821684000,6.35968408203125,0.006106213666498661,0.04572008550167084,-0.007930697873234749
1760107128831750000,6.36975,0.013507138006389141,0.04715739190578461,-0.01816602423787117
1760107128841816000,6.379816162109375,0.022374732419848442,0.03724506497383118,-0.014463172294199467
1760107128851881000,6.389880859375,0.021850887686014175,0.0110582010820508,-0.004723459016531706
1760107128861947100,6.399947021484375,0.008275706321001053,-0.01326992828398943,0.011013020761311054
1760107128872013000,6.410012939453125,-0.009941913187503815,-0.02883424237370491,0.039400987327098846
1760107128882078000,6.420077880859375,-0.01623735949397087,-0.034157365560531616,0.05272052064538002
1760107128892143900,6.430143798828125,-0.02459791861474514,-0.034129317849874496,0.04559445008635521
1760107128902210000,6.4402099609375,-0.02534325048327446,-0.014331095851957798,0.019188307225704193
1760107128912275200,6.450275146484375,-0.024699032306671143,0.016459841281175613,-0.012258830480277538
1760107128922340900,6.4603408203125,-0.019786374643445015,0.04894575849175453,-0.03849876672029495
1760107128932406000,6.470406005859375,-0.015868598595261574,0.06155901774764061,-0.04986007884144783
1760107128942472000,6.480471923828125,-0.008240429684519768,0.059533003717660904,-0.03804035857319832
1760107128952538000,6.4905380859375,0.0033778767101466656,0.02394731715321541,-0.007711217273026705
1760107128962603000,6.50060302734375,-0.0015182429924607277,-0.023000087589025497,0.030521146953105927
1760107128972669000,6.5106689453125,-0.0002545733004808426,-0.058861151337623596,0.058981284499168396
1760107128982734800,6.52073486328125,-0.002886100672185421,-0.07515522837638855,0.06643130630254745
1760107128992800000,6.530800048828125,-0.00730508379638195,-0.07408463954925537,0.048797182738780975
1760107129002866000,6.540865966796875,-0.012271744199097157,-0.04541606083512306,0.022827619686722755
1760107129012932000,6.55093212890625,-0.013411843217909336,-0.003152760211378336,-0.00605809036642313
1760107129022997000,6.5609970703125,-0.006237087771296501,0.03460344672203064,-0.029764477163553238
1760107129033063000,6.57106298828125,0.0036088847555220127,0.05703072249889374,-0.04218759015202522
1760107129043129000,6.581129150390625,0.011337531730532646,0.0482659712433815,-0.050368666648864746
1760107129053194000,6.591194091796875,0.013452349230647087,0.015437186695635319,-0.039885129779577255
1760107129063260200,6.60126025390625,0.010002586990594864,-0.017161589115858078,-0.007408433593809605
1760107129073324800,6.61132470703125,0.0011664852499961853,-0.03580451384186745,0.01888442225754261
1760107129083391000,6.621390869140625,-0.008258805610239506,-0.037542674690485,0.04210933670401573
1760107129093457000,6.631456787109375,-0.009002093225717545,-0.027991514652967453,0.0454271025955677
1760107129103522000,6.64152197265625,-0.0005794120952486992,-0.010997532866895199,0.03214460238814354
1760107129113588000,6.651587890625,0.010106788016855717,0.01432220358401537,0.008100520819425583
1760107129123654000,6.66165380859375,0.02057342231273651,0.025449352338910103,-0.015980705618858337
1760107129133719000,6.671718994140625,0.019452499225735664,0.022405890747904778,-0.0335565060377121
1760107129143785000,6.681784912109375,0.015835102647542953,0.014897371642291546,-0.040027931332588196
1760107129153851100,6.69185107421875,0.010149255394935608,0.007080460898578167,-0.03433489054441452
1760107129163916300,6.701916259765625,0.006286068353801966,-0.007550360634922981,-0.015948737040162086
1760107129173982500,6.711982421875,0.009505830705165863,-0.018950022757053375,0.005794641561806202
1760107129184047400,6.72204736328125,0.012152992188930511,-0.03958452120423317,0.02590053901076317
1760107129194113300,6.73211328125,0.01929479092359543,-0.04210307449102402,0.04307073727250099
1760107129204179200,6.74217919921875,0.01960628852248192,-0.03018246218562126,0.05429442226886749
1760107129214244400,6.752244384765625,0.011240767315030098,-0.005396156571805477,0.04687672108411789
1760107129224310300,6.762310302734375,0.002180959563702345,0.01669929176568985,0.019352152943611145
1760107129234376400,6.77237646484375,0.008160023018717766,0.02042292430996895,-0.007834461517632008
1760107129244441300,6.78244140625,0.023249339312314987,0.008790528401732445,-0.014569485560059547
1760107129254507300,6.79250732421875,0.03585940599441528,-0.01728714443743229,-0.006400771904736757
1760107129264573400,6.802573486328125,0.03643333166837692,-0.03175758570432663,0.00890028104186058
1760107129274638300,6.812638427734375,0.021719366312026978,-0.03681839257478714,0.01576031930744648
1760107129284704500,6.82270458984375,0.003379909787327051,-0.028647366911172867,-0.00020507967565208673
1760107129294769400,6.832769287109375,-0.011271737515926361,-0.012373854406177998,-0.01784559153020382
1760107129304835300,6.84283544921875,-0.012337388470768929,0.005342751741409302,-0.024930525571107864
1760107129314901200,6.8529013671875,-0.002871981356292963,0.026360420510172844,-0.01845931075513363
1760107129324966400,6.86296630859375,0.009582257829606533,0.03976421058177948,-0.007311881985515356
1760107129335032600,6.873032470703125,0.015566647052764893,0.035221390426158905,0.009361104108393192
1760107129345098200,6.88309814453125,0.01510963961482048,0.011654114350676537,0.02005387656390667
1760107129355163400,6.893163330078125,0.009537506848573685,-0.012824596837162971,0.027359992265701294
1760107129365229300,6.903229248046875,0.006677005905658007,-0.04567335546016693,0.03449220582842827
1760107129375295500,6.91329541015625,0.004086548928171396,-0.05940381437540054,0.022813444957137108
1760107129385360100,6.923360107421875,0.004180112387984991,-0.0506952628493309,0.0014217670541256666
1760107129395426300,6.93342626953125,0.0005837799981236458,-0.0335351824760437,-0.01924755796790123
1760107129405492200,6.9434921875,0.004271823447197676,0.006938120350241661,-0.03471068665385246
1760107129415557400,6.953557373046875,0.0019085337407886982,0.039340533316135406,-0.037379972636699677
1760107129425623300,6.963623291015625,0.002841141540557146,0.04536490887403488,-0.025804268196225166
1760107129435688200,6.973688232421875,0.007359194103628397,0.0238654762506485,-0.00005229935050010681
1760107129445754400,6.98375439453125,0.01497257873415947,-0.0007237596437335014,0.022151056677103043
1760107129455820300,6.9938203125,0.012408485636115074,-0.030254222452640533,0.0317528173327446
1760107129465885400,7.003885498046875,0.0058819898404181,-0.035183973610401154,0.033152949064970016
1760107129475951400,7.013951416015625,-0.0032646371982991695,-0.02975086122751236,0.02734965644776821
1760107129486017500,7.024017578125,-0.004738793708384037,-0.013110543601214886,0.014669830910861492
1760107129496082400,7.03408251953125,-0.001396792707964778,0.003838079981505871,-0.0017634700052440166
1760107129506148400,7.0441484375,0.0031897700391709805,0.013363366015255451,-0.01926230825483799
1760107129516214300,7.05421435546875,0.006828180514276028,0.01885560154914856,-0.04013776406645775
1760107129526279400,7.064279541015625,0.007994286715984344,0.015709910541772842,-0.05292726680636406
1760107129536345300,7.074345458984375,0.0023169605992734432,-0.0028078481554985046,-0.05636513978242874
1760107129546410200,7.08441015625,0.005824717693030834,-0.014820756390690804,-0.03050658106803894
1760107129556476400,7.094476318359375,0.0031700781546533108,-0.02562786266207695,0.007164365611970425
1760107129566542300,7.104542236328125,0.010089323855936527,-0.034528665244579315,0.03386484831571579
1760107129576607500,7.114607421875,0.018893200904130936,-0.0315009169280529,0.0400250069797039
1760107129586673200,7.124673095703125,0.032942961901426315,-0.011735363863408566,0.02655625157058239
1760107129596739300,7.1347392578125,0.04009195417165756,0.011091921478509903,-0.0022357155103236437
1760107129606804500,7.144804443359375,0.03620551526546478,0.02883734554052353,-0.03251788392663002
1760107129616870400,7.154870361328125,0.03108479082584381,0.03293701633810997,-0.057824838906526566
1760107129626936300,7.164936279296875,0.024785077199339867,0.009258902631700039,-0.05980760604143143
1760107129637001200,7.175001220703125,0.019004153087735176,-0.021248407661914825,-0.04807824268937111
1760107129647067400,7.1850673828125,0.012061020359396935,-0.04237734526395798,-0.022695964202284813
1760107129657132300,7.19513232421875,0.0095059834420681,-0.0443108007311821,-0.0027358392253518105
1760107129667198500,7.205198486328125,0.008799370378255844,-0.025328705087304115,-0.006698967423290014
1760107129677264400,7.215264404296875,0.012752300128340721,-0.0002792784944176674,-0.019244853407144547
1760107129687329300,7.225329345703125,0.007174549624323845,0.017502635717391968,-0.041242245584726334
1760107129697395200,7.235395263671875,0.007078143768012524,0.03471864387392998,-0.06203753873705864
1760107129707461400,7.24546142578125,0.009242500178515911,0.04608629271388054,-0.06975454092025757
1760107129717526500,7.255526611328125,0.012900885194540024,0.04078420624136925,-0.059724804013967514
1760107129727592400,7.265592529296875,0.010013577528297901,0.03143381327390671,-0.03211507573723793
1760107129737658400,7.275658447265625,0.007370922714471817,0.01669987291097641,0.004154514987021685
1760107129747723300,7.28572314453125,0.008885995484888554,-0.0001675225794315338,0.03921183571219444
1760107129757789400,7.29578955078125,0.01386344339698553,-0.0121229849755764,0.058053698390722275
1760107129767854300,7.305854248046875,0.012391637079417706,-0.005808440037071705,0.05712684616446495
1760107129777920300,7.315920166015625,0.01576346531510353,0.0071126846596598625,0.034706760197877884
1760107129787986200,7.325986083984375,0.013519525527954102,0.02944323606789112,0.010133818723261356
1760107129798051300,7.33605126953125,0.007031266577541828,0.03794937580823898,-0.01928718574345112
1760107129808117500,7.346117431640625,0.0019513186998665333,0.04041861742734909,-0.03260033577680588
1760107129818183400,7.356183349609375,-0.0021890979260206223,0.032253630459308624,-0.029769664630293846
1760107129828248300,7.366248291015625,-0.005415257066488266,0.012885045260190964,-0.009224751964211464
1760107129838314200,7.376314208984375,-0.006581188645213842,-0.003004705999046564,0.007002154365181923
1760107129848380400,7.38638037109375,-0.008411410264670849,-0.01599525474011898,0.019708914682269096
1760107129858445300,7.3964453125,-0.012223192490637302,-0.01833857037127018,0.02116992324590683
1760107129868511500,7.406511474609375,-0.014281810261309147,-0.005953057203441858,0.011622266843914986
1760107129878576400,7.416576416015625,-0.016118593513965607,0.015728268772363663,0.006101800594478846
1760107129888642300,7.426642333984375,-0.019305093213915825,0.029494671151041985,0.007453408557921648
1760107129898708200,7.436708251953125,-0.020870499312877655,0.028604907914996147,0.005108495242893696
1760107129908773400,7.4467734375,-0.015156136825680733,0.017901510000228882,-0.000828628777526319
1760107129918839600,7.456839599609375,-0.011527580209076405,0.0031944699585437775,-0.006843377836048603
1760107129928905200,7.4669052734375,-0.010002822615206242,-0.008393828757107258,-0.0017868520226329565
1760107129938970400,7.476970458984375,-0.009609740227460861,-0.009447375312447548,0.0029045722912997007
1760107129949036300,7.487036376953125,-0.00249645859003067,-0.000687500461935997,0.017244193702936172
1760107129959102500,7.4971025390625,0.0026690084487199783,0.010892722755670547,0.0304713174700737
1760107129969167400,7.50716748046875,0.007775266654789448,0.011268210597336292,0.03650747239589691
1760107129979233300,7.5172333984375,0.0049272822216153145,-0.003522187005728483,0.03596445545554161
1760107129989298400,7.52729833984375,-0.001664731651544571,-0.011376302689313889,0.02758142352104187
1760107129999364400,7.5373642578125,-0.010492844507098198,0.00036184582859277725,0.0016965626273304224
1760107130009430500,7.547430419921875,-0.01565389335155487,0.010458343662321568,-0.015934430062770844
1760107130019495200,7.5574951171875,-0.013519369065761566,0.021783702075481415,-0.023750808089971542
1760107130029561300,7.567561279296875,-0.0038821722846478224,0.02769443765282631,-0.00736638018861413
1760107130039627300,7.577627197265625,0.0004792865365743637,0.025074150413274765,0.010860294103622437
1760107130049692400,7.5876923828125,-0.00048433197662234306,0.006972895003855228,0.02094179391860962
1760107130059758300,7.59775830078125,-0.003552559996023774,-0.01037893071770668,-0.00008466234430670738
1760107130069824500,7.607824462890625,0.0019101058132946491,-0.004310017917305231,-0.009135766886174679
1760107130079889400,7.617889404296875,-0.0098027428612113,-0.009606246836483479,-0.027912117540836334
1760107130089955300,7.627955322265625,-0.02317216992378235,0.00018250290304422379,-0.039915990084409714
1760107130100020500,7.6380205078125,-0.018929753452539444,0.016995571553707123,-0.04003237187862396
1760107130110086400,7.64808642578125,-0.006108851637691259,0.015658382326364517,-0.023672467097640038
1760107130120152600,7.658152587890625,0.00039911502972245216,0.0007553314790129662,-0.0025437469594180584
1760107130130217200,7.66821728515625,0.000739759299904108,-0.016108591109514236,0.020075224339962006
1760107130140283400,7.678283447265625,-0.003717307234182954,-0.03790070489048958,0.026880666613578796
1760107130150349300,7.688349365234375,-0.009197238832712173,-0.039002664387226105,0.01723647117614746
1760107130160414500,7.69841455078125,-0.006575888954102993,-0.015236083418130875,-0.0027777180075645447
1760107130170480000,7.708480224609375,-0.0010938120540231466,0.018633786588907242,-0.02487800642848015
1760107130180545000,7.718544921875,-0.004352988675236702,0.0354231521487236,-0.04518754035234451
1760107130190611200,7.728611083984375,0.00005574105307459831,0.019826795905828476,-0.047460030764341354
1760107130200677000,7.738677001953125,-0.009603011421859264,-0.007569942623376846,-0.03701351210474968
1760107130210742300,7.7487421875,-0.010633977130055428,-0.016319282352924347,-0.010391397401690483
1760107130220808200,7.75880810546875,-0.004309236072003841,0.008886737748980522,0.008767649531364441
1760107130230874000,7.7688740234375,0.008678888902068138,0.04008936882019043,0.02143166959285736
1760107130240939300,7.778939208984375,0.025137756019830704,0.035920195281505585,0.017431069165468216
1760107130251005200,7.789005126953125,0.033142007887363434,0.010681871324777603,0.009014342911541462
1760107130261071000,7.799071044921875,0.0267363078892231,-0.012441557832062244,0.0026709595695137978
1760107130271136000,7.809135986328125,0.014512553811073303,-0.03596528619527817,0.008646983653306961
1760107130281202200,7.8192021484375,0.004980034194886684,-0.044306039810180664,0.02116543799638748
1760107130291267000,7.82926708984375,0.00451197475194931,-0.045198775827884674,0.02799292840063572
1760107130301333200,7.839333251953125,0.006808951497077942,-0.0200076662003994,0.022508947178721428
1760107130311399200,7.849399169921875,0.006356089375913143,0.008550518192350864,0.010757272131741047
1760107130321464000,7.859464111328125,0.0023815883323550224,0.014924793504178524,-0.009926168248057365
1760107130331530000,7.869530029296875,-0.0008875245694071054,0.008653247728943825,-0.02486901916563511
1760107130341596200,7.87959619140625,0.0001367274671792984,0.008246850222349167,-0.020390912890434265
1760107130351661300,7.889661376953125,-0.0004603737033903599,0.01677689142525196,-0.0009649221319705248
1760107130361727200,7.899727294921875,-0.0036543027963489294,0.025045474991202354,0.016675323247909546
1760107130371792100,7.909792236328125,-0.012695294804871082,0.03853601962327957,0.03297126665711403
1760107130381858000,7.919858154296875,-0.015950476750731468,0.028978198766708374,0.02191195823252201
1760107130391924200,7.92992431640625,-0.017077375203371048,0.0018365615978837013,-0.0020973472855985165
1760107130401989000,7.939989013671875,-0.01606457307934761,-0.011537034064531326,-0.017209453508257866
1760107130412055300,7.95005517578125,-0.011241578496992588,-0.005831046029925346,-0.024155160412192345
1760107130422121000,7.960120849609375,-0.008956319652497768,-0.0003268253058195114,-0.01931965909898281
1760107130432186000,7.97018603515625,-0.010292830877006054,0.002852599136531353,-0.010656424798071384
1760107130442252000,7.980251953125,-0.014661213383078575,0.011948891915380955,-0.0031210104934871197
1760107130452318200,7.990318115234375,-0.02249787375330925,0.013399390503764153,-0.00521566066890955
1760107130462383000,8.000383056640626,-0.0281594879925251,0.011090695858001709,-0.01090550422668457
1760107130472449000,8.010448974609375,-0.020543359220027924,0.012369874864816666,-0.015696361660957336
1760107130482514200,8.02051416015625,-0.011264905333518982,0.013272954151034355,-0.014929104596376419
1760107130492580000,8.030580078125,0.0014102705754339695,0.022197343409061432,-0.005090084858238697
1760107130502646300,8.040646240234375,0.014326068572700024,0.02207190915942192,0.017053034156560898
1760107130512711200,8.050711181640626,0.022648770362138748,0.00804936047643423,0.039257314056158066
1760107130522777000,8.060777099609375,0.020083347335457802,-0.006698159500956535,0.051882561296224594
1760107130532843000,8.070843017578126,0.011152317747473717,-0.010871311649680138,0.04508069530129433
1760107130542908200,8.080908203125,0.008540289476513863,-0.008242238312959671,0.020695462822914124
1760107130552974300,8.090974365234375,0.007129645440727472,0.0016218051314353943,-0.012029471807181835
1760107130563039000,8.1010390625,0.0020102509297430515,0.009128457866609097,-0.024501588195562363
1760107130573105200,8.111105224609375,0.00008579529821872711,0.010830721817910671,-0.03172503784298897
1760107130583171000,8.121171142578126,0.0023753149434924126,0.009763327427208424,-0.03130985051393509
1760107130593236200,8.131236328125,0.0041844346560537815,0.006336602382361889,-0.0192532017827034
1760107130603302100,8.14130224609375,-0.0013389617670327425,0.019954409450292587,0.005041752941906452
1760107130613368000,8.1513681640625,-0.010398948565125465,0.0337890163064003,0.03368155285716057
1760107130623433200,8.16143310546875,-0.0256026703864336,0.03606601804494858,0.04576218128204346
1760107130633499100,8.1714990234375,-0.03205755725502968,0.03646502643823624,0.054616779088974
1760107130643564300,8.181564208984375,-0.02207549661397934,0.05960576981306076,0.05221008136868477
1760107130653630200,8.191630126953125,-0.010875318199396133,0.06678281724452972,0.04640110954642296
1760107130663696100,8.201696044921874,0.002028496004641056,0.04753429442644119,0.03689388930797577
1760107130673761000,8.211760986328125,0.005548674147576094,0.023532452061772346,0.03319511190056801
1760107130683827200,8.2218271484375,-0.0005006962455809116,0.008592117577791214,0.034307513386011124
1760107130693893000,8.23189306640625,-0.02217012085020542,0.0123140849173069,0.026308588683605194
1760107130703958000,8.2419580078125,-0.04478701576590538,0.01573598012328148,0.016574468463659286
1760107130714024200,8.252024169921874,-0.04942525923252106,0.02864185720682144,0.01466326229274273
1760107130724089000,8.262089111328125,-0.039436809718608856,0.055492911487817764,0.01364194042980671
1760107130734155300,8.2721552734375,-0.021663472056388855,0.061819083988666534,0.012939096428453922
1760107130744221200,8.28222119140625,-0.007712503895163536,0.03664688020944595,0.014899715781211853
1760107130754286000,8.2922861328125,0.0036907601170241833,0.01575499027967453,0.023771310225129128
1760107130764352000,8.30235205078125,-0.0010193069465458393,0.003952658735215664,0.03932763263583183
1760107130774418200,8.312418212890625,-0.009914057329297066,-0.017445046454668045,0.04222280532121658
1760107130784483000,8.322483154296876,-0.011520743370056152,-0.02535916119813919,0.026524534448981285
1760107130794549200,8.33254931640625,-0.00634728092700243,-0.016302600502967834,-0.006352411583065987
1760107130804615200,8.342615234375,-0.0033781228121370077,-0.014930007047951221,-0.04688252881169319
1760107130814680000,8.35268017578125,0.003824537619948387,-0.014178125187754631,-0.06764978915452957
1760107130824746200,8.362746337890625,0.009239276871085167,-0.0026397136971354485,-0.061343420296907425
1760107130834811100,8.37281103515625,0.010222522541880608,-0.003323929850012064,-0.04104210063815117
1760107130844877300,8.382877197265625,0.00552683649584651,-0.005443006753921509,-0.006843917071819305
1760107130854943000,8.39294287109375,0.0025252089835703373,-0.015618882142007351,0.012849530205130577
1760107130865008000,8.403008056640624,0.0067234160378575325,-0.030607951804995537,0.024207644164562225
1760107130875074000,8.413073974609375,0.012829849496483803,-0.03573250025510788,0.02294347994029522
1760107130885140200,8.42314013671875,0.010910242795944214,-0.026797864586114883,0.01590314693748951
1760107130895205400,8.433205322265625,0.005854698363691568,-0.021321028470993042,0.012328658252954483
1760107130905271000,8.44327099609375,0.0040906197391450405,-0.018048003315925598,0.0036552748642861843
1760107130915336200,8.453336181640625,0.008016897365450859,-0.021086731925606728,0.00878861453384161
1760107130925402000,8.463402099609375,0.010323461145162582,-0.02905171364545822,0.014033444225788116
1760107130935468300,8.47346826171875,0.009785485453903675,-0.017339779064059258,0.013176045380532742
1760107130945533000,8.483532958984375,0.01579117961227894,-0.0007208557799458504,0.010353094898164272
1760107130955599000,8.49359912109375,0.017366085201501846,0.009971186518669128,0.013093323446810246
1760107130965665000,8.5036650390625,0.006031407043337822,0.01215098425745964,0.011233105324208736
1760107130975730200,8.513730224609375,0.00014458177611231804,0.016381116583943367,0.015608085319399834
1760107130985796000,8.523796142578124,-0.005276016425341368,0.0026557166129350662,0.022662799805402756
1760107130995861000,8.533861083984375,-0.007683758158236742,-0.012671777047216892,0.025259286165237427
1760107131005927200,8.54392724609375,-0.006863238289952278,-0.027043525129556656,0.0174610186368227
1760107131015993000,8.5539931640625,-0.009321080520749092,-0.04409537836909294,0.007226404268294573
1760107131026058200,8.564058349609375,-0.0032490729354321957,-0.04101410135626793,-0.01374039612710476
1760107131036124200,8.574124267578124,0.0015525189228355885,-0.03401932492852211,-0.031381070613861084
1760107131046190300,8.5841904296875,0.0068420893512666225,-0.022359739989042282,-0.037034161388874054
1760107131056255000,8.5942548828125,0.005568092223256826,-0.020047582685947418,-0.029272696003317833
1760107131066321200,8.604321044921875,0.006154786329716444,-0.0038965754210948944,-0.009918440133333206
1760107131076386300,8.61438623046875,0.0036034034565091133,0.014580054208636284,0.005813838914036751
1760107131086452200,8.6244521484375,0.0029985993169248104,0.02587425336241722,0.008356092497706413
1760107131096518100,8.63451806640625,0.005836648400872946,0.026135709136724472,0.0035854512825608253
1760107131106583000,8.6445830078125,0.009258277714252472,0.007567083463072777,-0.0038908408023416996
1760107131116649200,8.654649169921875,0.006563402246683836,-0.006430290173739195,-0.005522197112441063
1760107131126715100,8.664715087890626,0.0077035012654960155,-0.009155236184597015,-0.00008269038517028093
1760107131136780300,8.6747802734375,0.012111600488424301,-0.0036699590273201466,-0.0004451581626199186
1760107131146846000,8.684845947265625,0.01354837603867054,0.00042358599603176117,-0.005389849655330181
1760107131156911000,8.6949111328125,0.014839915558695793,-0.00571177015081048,-0.001374807208776474
1760107131166977500,8.7049775390625,0.009935971349477768,-0.0094231516122818,-0.004277918953448534
1760107131177043700,8.715043701171876,0.0009278231300413609,-0.005557789001613855,-0.0101470360532403
1760107131187108900,8.72510888671875,-0.003217919496819377,-0.003046161960810423,-0.02046279050409794
1760107131197174500,8.735174560546875,-0.007535322569310665,0.0040402719751000404,-0.02151516266167164
1760107131207240700,8.74524072265625,-0.0016087237745523453,0.01300846692174673,-0.009303503669798374
1760107131217305600,8.7553056640625,-0.003022356890141964,0.010669933632016182,0.004622486419975758
1760107131227371800,8.765371826171876,-0.003130214987322688,0.008326884359121323,0.02320123091340065
1760107131237436400,8.7754365234375,-0.007729754783213139,0.007830686867237091,0.03155773878097534
1760107131247502600,8.785502685546875,-0.00617606658488512,0.006586192175745964,0.026720108464360237
1760107131257568500,8.795568603515624,-0.001263767946511507,-0.0027216412127017975,0.005840906873345375
1760107131267633700,8.805633544921875,0.0021181805059313774,0.008797862567007542,-0.020279111340641975
1760107131277699600,8.815699462890626,0.007368406280875206,0.02079290896654129,-0.04230900853872299
1760107131287765800,8.825765869140625,0.004443456418812275,0.013635396957397461,-0.04758952185511589
1760107131297830700,8.83583056640625,0.0013716570101678371,-0.0024163564667105675,-0.032199449837207794
1760107131307896600,8.845896484375,0.0041956729255616665,-0.011539014987647533,0.0047455173917114735
1760107131317961700,8.855961669921875,0.007788982708007097,-0.019270405173301697,0.0403781421482563
1760107131328027600,8.866027587890626,0.005735152866691351,-0.016271419823169708,0.05873371288180351
1760107131338093800,8.87609375,0.0027309400029480457,0.0002981526777148247,0.05010238662362099
1760107131348158700,8.88615869140625,0.00042064767330884933,0.014442200772464275,0.025743253529071808
1760107131358224600,8.896224609375,-0.006725598126649857,0.013335724361240864,-0.016879985108971596
1760107131368290600,8.90629052734375,-0.01358030829578638,0.01610967516899109,-0.052922409027814865
1760107131378355700,8.916355712890624,-0.014426447451114655,0.018364520743489265,-0.05803558602929115
1760107131388421600,8.926421630859375,-0.012212028726935387,0.015476321801543236,-0.04256315156817436
1760107131398486500,8.936486572265625,-0.009888425469398499,0.014895537868142128,-0.007616930175572634
1760107131408552700,8.946552734375,0.001826553139835596,0.006115894764661789,0.022342300042510033
1760107131418618600,8.95661865234375,0.01564481109380722,-0.00938425213098526,0.03894268348813057
1760107131428683800,8.966683837890624,0.02437625080347061,-0.017792917788028717,0.04272570461034775
1760107131438749400,8.97674951171875,0.024187767878174782,-0.024053573608398438,0.02128969319164753
1760107131448815600,8.986815673828126,0.016024911776185036,-0.022713471204042435,-0.01036464050412178
1760107131458880800,8.996880859375,0.004201276693493128,-0.004820225760340691,-0.03532618284225464
1760107131468946700,9.00694677734375,0.0008319495245814323,0.015516869723796844,-0.04557054117321968
1760107131479011600,9.017011474609374,0.0034547336399555206,0.014929241500794888,-0.03943885490298271
1760107131489077500,9.027077392578125,0.010963249951601028,0.01193931046873331,-0.017178822308778763
1760107131499143700,9.037143798828126,0.014112867414951324,-0.005812920164316893,0.0037557301111519337
1760107131509208600,9.04720849609375,0.012231877073645592,-0.025265712291002274,0.016522657126188278
1760107131519274800,9.057274658203125,0.023319056257605553,-0.025068338960409164,0.023162510246038437
1760107131529340700,9.067340576171874,0.030321037396788597,-0.01632172055542469,0.023017102852463722
1760107131539405600,9.077405517578125,0.029585812240839005,-0.010554743930697441,0.00796015840023756
1760107131549471700,9.0874716796875,0.028799112886190414,0.0044431136921048164,0.00281493179500103
1760107131559537700,9.09753759765625,0.01972821354866028,0.003338135778903961,-0.01463948655873537
1760107131569602800,9.107602783203125,0.017459463328123093,0.003274751827120781,-0.022318711504340172
1760107131579668700,9.117668701171874,0.0201193206012249,0.01054989080876112,-0.01044321060180664
1760107131589733600,9.127733642578125,0.019602399319410324,0.01470255758613348,0.0070923734456300735
1760107131599799600,9.137799560546876,0.009654903784394264,0.012114498764276505,0.018134422600269318
1760107131609865700,9.14786572265625,0.008074584417045116,0.01335207000374794,0.028278935700654984
1760107131619930600,9.1579306640625,0.0057057710364460945,0.0012657465413212776,0.02412284165620804
1760107131629996500,9.16799658203125,-0.0017497478984296322,-0.020886428654193878,0.014966094866394997
1760107131640061700,9.178061767578125,-0.008975887671113014,-0.029484909027814865,0.0051993378438055515
1760107131650127600,9.188127685546876,-0.017218371853232384,-0.022429395467042923,-0.007724716328084469
1760107131660193800,9.19819384765625,-0.02226024493575096,-0.004514511674642563,-0.012245262041687965
1760107131670258700,9.2082587890625,-0.026564445346593857,0.018943144008517265,-0.012078281491994858
1760107131680324600,9.21832470703125,-0.020938964560627937,0.02249741367995739,-0.0074197170324623585
1760107131690390500,9.228390625,-0.00943037960678339,0.01594577357172966,0.003039315342903137
1760107131700455700,9.23845556640625,0.0024374821223318577,0.003707331605255604,0.011961564421653748
1760107131710521600,9.248521484375,0.009890604764223099,-0.009406340308487415,0.018699096515774727
1760107131720586500,9.25858642578125,0.007104747928678989,-0.0229494608938694,0.025141360238194466
1760107131730652700,9.268652587890625,0.0033073462545871735,-0.02957567386329174,0.02215089648962021
1760107131740718600,9.278718505859375,-0.005599011667072773,-0.035319529473781586,0.010719453915953636
1760107131750783700,9.28878369140625,-0.005087684374302626,-0.022455662488937378,-0.003438709769397974
1760107131760849700,9.298849609375,-0.0008242994081228971,-0.0027380501851439476,-0.017885861918330193
1760107131770914600,9.30891455078125,0.005174471065402031,0.00976256188005209,-0.031749479472637177
1760107131780980500,9.31898046875,0.014645682647824287,0.017570631578564644,-0.03582668676972389
1760107131791046700,9.329046630859375,0.016003629192709923,0.008079659193754196,-0.016727294772863388
1760107131801111800,9.33911181640625,0.021836217492818832,-0.004464628640562296,0.014113707467913628
1760107131811177700,9.349177734375,0.02219308167695999,-0.018087763339281082,0.036615557968616486
1760107131821243600,9.35924365234375,0.017508825287222862,-0.02924327738583088,0.04786644130945206
1760107131831308500,9.36930859375,0.009450899437069893,-0.03242389112710953,0.03173673897981644
1760107131841374700,9.379374755859375,0.005915431771427393,-0.03195862099528313,0.0015009216731414199
1760107131851439600,9.389439697265624,0.008603626862168312,-0.008683126419782639,-0.024298185482621193
1760107131861505800,9.399505859375,0.014505138620734215,0.0052299778908491135,-0.04471229016780853
1760107131871571500,9.409571533203126,0.0154444370418787,0.024751747027039528,-0.05282481014728546
1760107131881636600,9.41963671875,0.018776288256049156,0.02880426123738289,-0.04131324216723442
1760107131891702500,9.42970263671875,0.008731909096240997,0.020477887243032455,-0.011396355926990509
1760107131901768700,9.439768798828124,-0.005688013043254614,0.0058941710740327835,0.0170512106269598
1760107131911833900,9.449833740234375,-0.016110826283693314,-0.01567130908370018,0.03721160441637039
1760107131921899500,9.4598994140625,-0.008010231889784336,-0.019502000883221626,0.03502137213945389
1760107131931964700,9.469964599609375,-0.0006860063876956701,-0.018896397203207016,0.01680641807615757
1760107131942030600,9.480030517578125,0.004611501470208168,0.000024246983230113983,-0.003880660515278578
1760107131952096800,9.4900966796875,0.005894612520933151,0.019919658079743385,-0.02124606817960739
1760107131962161700,9.50016162109375,0.007012694608420134,0.012262819334864616,-0.020628850907087326
1760107131972227600,9.5102275390625,0.0057735261507332325,0.0036419015377759933,-0.010407371446490288
1760107131982293500,9.52029345703125,0.006230222526937723,-0.001730460673570633,0.00719320448115468
1760107131992358700,9.530358642578125,-0.0014964062720537186,0.0019473647698760033,0.02546568587422371
1760107132002424800,9.5404248046875,-0.009147338569164276,0.009530963376164436,0.02926941215991974
1760107132012489500,9.550489501953125,-0.012879759073257446,0.008459040895104408,0.028294162824749947
1760107132022555600,9.5605556640625,-0.009073342196643353,0.002540252171456814,0.014240364544093609
1760107132032621600,9.57062158203125,-0.003612264059484005,0.01235692948102951,-0.004608690273016691
1760107132042686700,9.580686767578126,0.010249216109514236,0.017188485711812973,-0.0171708632260561
1760107132052752600,9.590752685546875,0.01442398689687252,0.008502320386469364,-0.011603258550167084
1760107132062818800,9.60081884765625,0.007044669706374407,0.013071470893919468,0.005312063731253147
1760107132072883700,9.6108837890625,-0.00030352454632520676,0.016952496021986008,0.021471591666340828
1760107132082949600,9.62094970703125,-0.0043064747005701065,0.01415015198290348,0.03876602649688721
1760107132093014800,9.631014892578126,-0.011720182374119759,-0.016623472794890404,0.05706753581762314
1760107132103080700,9.641080810546875,-0.028505798429250717,-0.07276870310306549,0.07035421580076218
1760107132113146600,9.651146728515625,-0.045399826020002365,-0.139322429895401,0.08400104939937592
1760107132123211500,9.66121142578125,-0.05589374527335167,-0.13602890074253082,0.09233567863702774
1760107132133277700,9.671277587890625,-0.04626162350177765,-0.10383181273937225,0.10426957160234451
1760107132143342800,9.6813427734375,-0.03468601778149605,-0.08817590028047562,0.07232692092657089
1760107132153408800,9.69140869140625,-0.014803120866417885,-0.027329595759510994,0.018417619168758392
1760107132163474400,9.701474365234375,0.009018651209771633,-0.004293836187571287,-0.02993767149746418
1760107132173539600,9.71153955078125,0.018857967108488083,-0.020823277533054352,-0.06576757878065109
1760107132183605800,9.721605712890625,0.012795639224350452,-0.013287896290421486,-0.07049395143985748
1760107132193671700,9.731671630859376,0.004045290872454643,0.006018423475325108,-0.04808477684855461
1760107132203736600,9.741736572265625,-0.008595408871769905,0.0279778353869915,-0.01959671825170517
1760107132213802500,9.751802490234375,-0.012277761474251747,0.05932803452014923,-0.0051141828298568726
1760107132223867600,9.76186767578125,-0.005276039708405733,0.05892078951001167,-0.006771957967430353
1760107132233933600,9.77193359375,0.0034924186766147614,0.017839398235082626,-0.011690549552440643
1760107132243999700,9.781999755859376,0.007405712269246578,-0.03326573595404625,-0.004981707781553268
1760107132254064600,9.792064697265625,0.008600406348705292,-0.062480878084897995,0.0057726697996258736
1760107132264130600,9.802130615234375,0.01191030628979206,-0.06653425842523575,0.018315302208065987
1760107132274195700,9.81219580078125,0.022834327071905136,-0.03109610453248024,0.01912809908390045
1760107132284261600,9.82226171875,0.02295784465968609,0.014881456270813942,0.003678661771118641
1760107132294327800,9.832327880859374,0.01868560165166855,0.04159589111804962,-0.019261540845036507
1760107132304392700,9.842392822265625,0.019023176282644272,0.04422919452190399,-0.030659712851047516
1760107132314458600,9.852458740234376,0.016320865601301193,0.014333345927298069,-0.02057112567126751
1760107132324524500,9.862524658203125,0.020598798990249634,-0.02566555328667164,0.00170193612575531
1760107132334589700,9.872589599609375,0.02466251701116562,-0.06050475686788559,0.0338825099170208
1760107132344656000,9.88265576171875,0.022016329690814018,-0.06595748662948608,0.05318080261349678
1760107132354720500,9.892720458984375,0.019827743992209435,-0.047352373600006104,0.04264294356107712
1760107132364786700,9.90278662109375,0.014586720615625381,-0.011887206695973873,0.004988053347915411
1760107132374852600,9.9128525390625,0.006897374521940947,0.019860602915287018,-0.045396290719509125
1760107132384917800,9.922917724609375,-0.001243996201083064,0.05605054646730423,-0.07668353617191315
1760107132394983400,9.9329833984375,-0.0025625270791351795,0.05676400661468506,-0.08150545507669449
1760107132405049600,9.943049560546875,0.007055177353322506,0.028260495513677597,-0.0680072084069252
1760107132415114800,9.95311474609375,0.020508667454123497,0.008186385966837406,-0.024166256189346313
1760107132425180700,9.9631806640625,0.021839281544089317,-0.013802886009216309,0.025722987949848175
1760107132435245800,9.973245849609375,0.0076177362352609634,-0.03662830591201782,0.0666097030043602
1760107132445311500,9.9833115234375,0.00015301164239645004,-0.024128194898366928,0.0889555960893631
1760107132455377700,9.993377685546875,0.004090495407581329,-0.007680244743824005,0.06836536526679993
1760107132465442600,10.003442626953126,0.01924999989569187,0.0051551759243011475,0.019749851897358894
1760107132475508700,10.0135087890625,0.034260641783475876,0.037820443511009216,-0.015215322375297546
1760107132485573600,10.02357373046875,0.027980469167232513,0.05020011216402054,-0.034131817519664764
1760107132495639600,10.0336396484375,0.008630205877125263,0.024386627599596977,-0.03747568279504776
1760107132505705500,10.04370556640625,-0.0032971613109111786,0.006583244539797306,-0.012263238430023193
1760107132515770600,10.0537705078125,-0.011529524810612202,-0.006064906250685453,0.017981482669711113
1760107132525836800,10.0638369140625,-0.013898469507694244,-0.013184016570448875,0.0359136201441288
1760107132535902700,10.07390283203125,-0.01627747155725956,-0.015212013386189938,0.03362303227186203
1760107132545967600,10.083967529296874,-0.007577166892588139,-0.01652967929840088,0.00883183628320694
1760107132556033500,10.094033447265625,0.0030256761237978935,-0.01229764986783266,-0.023746080696582794
1760107132566098700,10.1040986328125,0.009566172957420349,0.004096385091543198,-0.03807353228330612
1760107132576164600,10.11416455078125,0.004540522117167711,0.026947904378175735,-0.03232909366488457
1760107132586230800,10.124230712890625,-0.00025846390053629875,0.03468360751867294,-0.0048522488214075565
1760107132596295700,10.134295654296874,0.006095838267356157,0.021991513669490814,0.029955267906188965
1760107132606361600,10.144361572265625,0.015080197714269161,-0.005036174785345793,0.05531909316778183
1760107132616426800,10.1544267578125,0.020180683583021164,-0.027868520468473434,0.06590675562620163
1760107132626492700,10.16449267578125,0.008348692208528519,-0.03736713156104088,0.049731265753507614
1760107132636558600,10.17455859375,-0.004371630027890205,-0.03857674077153206,0.027851266786456108
1760107132646623500,10.18462353515625,-0.012659022584557533,-0.036724597215652466,0.0008451973553746939
1760107132656689700,10.194689697265625,-0.017474550753831863,-0.022287333384156227,-0.015402215532958508
1760107132666755600,10.204755615234374,-0.022593367844820023,0.0016500549390912056,-0.019797630608081818
1760107132676820700,10.21482080078125,-0.024818439036607742,0.02696872502565384,-0.015039361082017422
1760107132686886700,10.22488671875,-0.019601715728640556,0.030297666788101196,-0.01341707818210125
1760107132696951600,10.23495166015625,-0.005232629831880331,0.020761150866746902,-0.0095022302120924
1760107132707017700,10.245017822265625,0.0029440559446811676,0.015333778224885464,-0.0003890209482051432
1760107132717083600,10.255083740234374,0.007588609121739864,0.003974064253270626,0.016160394996404648
1760107132727148500,10.2651484375,0.010230384767055511,-0.013689950108528137,0.03074587509036064
1760107132737214500,10.27521435546875,0.013497283682227135,-0.030835913494229317,0.03295549750328064
1760107132747279600,10.285279541015624,0.011761343106627464,-0.047109391540288925,0.018985416740179062
1760107132757345800,10.295345703125,0.0009438483975827694,-0.03515153378248215,-0.007491732016205788
1760107132767411700,10.30541162109375,-0.01037335954606533,0.017948832362890244,-0.029962709173560143
1760107132777476600,10.3154765625,-0.018390804529190063,0.06311392039060593,-0.05127092823386192
1760107132787542500,10.32554248046875,-0.01302600558847189,0.07161226123571396,-0.04885604605078697
1760107132797608700,10.335608642578125,0.005244610831141472,0.04690904915332794,-0.025903858244419098
1760107132807673600,10.345673583984375,0.017634665593504906,-0.005672106519341469,0.005165388807654381
1760107132817739800,10.35573974609375,0.021007558330893517,-0.0520329475402832,0.031787678599357605
1760107132827804700,10.3658046875,0.013095838949084282,-0.07551297545433044,0.039484746754169464
1760107132837870600,10.37587060546875,0.004724192898720503,-0.0682971403002739,0.0303700789809227
1760107132847936500,10.3859365234375,0.0025099841877818108,-0.04214676097035408,0.005178220570087433
1760107132858001700,10.396001708984375,0.004513213876634836,-0.0001423172652721405,-0.014347810298204422
1760107132868067800,10.40606787109375,0.0032042525708675385,0.05324142798781395,-0.017872897908091545
1760107132878132500,10.416132568359375,0.007943080738186836,0.06783821433782578,-0.02139679156243801
1760107132888198700,10.42619873046875,0.016350049525499344,0.04774181544780731,-0.012843233533203602
1760107132898264600,10.4362646484375,0.013459986075758934,0.018985003232955933,-0.0018041643779724836
1760107132908329700,10.446329833984375,0.0052551222033798695,-0.01287928782403469,0.006436491385102272
1760107132918395600,10.456395751953124,-0.0032898960635066032,-0.03971622884273529,0.019937120378017426
1760107132928460500,10.46646044921875,-0.0020006983540952206,-0.03223688527941704,0.026991210877895355
1760107132938526700,10.476526611328126,-0.0049762483686208725,-0.011722823604941368,0.03319211304187775
1760107132948592600,10.486592529296875,-0.01239476166665554,-0.014429294504225254,0.03119971789419651
1760107132958657800,10.49665771484375,-0.018434278666973114,-0.005391857586801052,0.01657736673951149
1760107132968723500,10.506723388671874,-0.00694661121815443,0.025333812460303307,-0.013996102847158909
1760107132978789600,10.51678955078125,0.009551405906677246,0.039757758378982544,-0.038018614053726196
1760107132988854500,10.5268544921875,0.015366016887128353,0.04191051051020622,-0.03906387463212013
1760107132998920700,10.536920654296875,0.00677679106593132,0.030739080160856247,-0.03259798511862755
1760107133008985900,10.54698583984375,-0.005999521818011999,0.01271938718855381,-0.003013723064213991
1760107133019051500,10.557051513671874,-0.015784509479999542,-0.010386997833848,0.03660426288843155
1760107133029117700,10.56711767578125,-0.02182641439139843,-0.02645975723862648,0.06255920231342316
1760107133039182600,10.5771826171875,-0.01694803684949875,-0.016300063580274582,0.06831908971071243
1760107133049248800,10.587248779296875,-0.010582944378256798,0.01001575868576765,0.045708123594522476
1760107133059313400,10.5973134765625,-0.00575250294059515,0.015441949479281902,0.0006434442475438118
1760107133069379600,10.607379638671874,-0.0003535216674208641,0.025338690727949142,-0.040439411997795105
1760107133079445500,10.617445556640625,0.00009335670620203018,0.03358437120914459,-0.0669035091996193
1760107133089510700,10.6275107421875,-0.008138422854244709,0.01732582226395607,-0.06807352602481842
1760107133099576800,10.637576904296875,-0.020010262727737427,-0.008857046253979206,-0.05587145313620567
1760107133109641500,10.647641357421875,-0.015822121873497963,-0.024564020335674286,-0.02451528050005436
1760107133119707600,10.657707763671874,-0.008268065750598907,-0.017353778705000877,0.004507582634687424
1760107133129773600,10.667773681640625,0.0001496882177889347,-0.002138674259185791,0.02993602491915226
1760107133139838700,10.677838623046876,-0.0029339862521737814,0.012411240488290787,0.028891533613204956
1760107133149904600,10.687904541015625,0.005716933403164148,0.040290575474500656,0.021853391081094742
1760107133159970800,10.697970703125,0.010899977758526802,0.041664235293865204,0.014402399770915508
1760107133170035200,10.70803515625,0.006250214297324419,0.013475772924721241,0.004419116768985987
1760107133180101000,10.71810107421875,0.010197019204497337,0.0001594359055161476,0.01330635230988264
1760107133190166300,10.728166259765626,0.019804824143648148,0.00006828829646110535,0.040012676268815994
1760107133200232200,10.738232177734375,0.020199505612254143,0.0029463665559887886,0.07040999829769135
1760107133210298000,10.748298095703126,-0.0030930519569665194,0.05121072009205818,0.09475009143352509
1760107133220363300,10.75836328125,-0.033513542264699936,0.12674090266227722,0.1203039214015007
1760107133230429200,10.76842919921875,-0.0570431724190712,0.13980992138385773,0.10660725086927414
1760107133240494300,10.778494384765626,-0.053295303136110306,0.12530234456062317,0.06676236540079117
1760107133250560000,10.78856005859375,-0.021906960755586624,0.08249998092651367,0.03866228461265564
1760107133260626200,10.798626220703126,0.003071627113968134,0.07300581783056259,0.05629640445113182
1760107133270691000,10.808691162109374,-0.02520199678838253,0.06182396411895752,0.12367937713861465
1760107133280757200,10.81875732421875,-0.036066893488168716,-0.03438486158847809,0.1390620768070221
1760107133290822100,10.828822265625,0.006717576179653406,-0.057876769453287125,0.13601744174957275
1760107133300888000,10.83888818359375,0.03874262049794197,-0.07750825583934784,0.11595506221055984
1760107133310954000,10.8489541015625,0.03546266630291939,-0.07843712717294693,0.07803773134946823
1760107133321019100,10.85901904296875,0.0247503649443388,-0.07643389701843262,0.005415460094809532
1760107133331085300,10.869085205078125,0.03174072504043579,-0.060564152896404266,-0.0793764516711235
1760107133341151200,10.879151123046874,0.04670795425772667,-0.002252373844385147,-0.14760158956050873
1760107133351216000,10.889216064453125,0.04504890739917755,0.047197382897138596,-0.17806470394134521
1760107133361282000,10.899281982421876,0.03198716789484024,0.06586454808712006,-0.1500474512577057
1760107133371347200,10.90934716796875,0.014121199026703835,0.03367193043231964,-0.08354464173316956
1760107133381413000,10.9194130859375,0.0025918427854776382,-0.06483414024114609,-0.03265589475631714
