time,seconds_elapsed,z,y,x
1760107122526868000,0.064867919921875,-0.09702827781438828,0.08449171483516693,0.145696222782135
1760107122536932900,0.074932861328125,-0.13351304829120636,0.10806415230035782,0.15604525804519653
1760107122546998800,0.084998779296875,-0.10796801000833511,0.08089058846235275,0.11960761994123459
1760107122557064700,0.095064697265625,-0.051300738006830215,0.019227223470807076,0.06424503028392792
1760107122567131000,0.105130859375,-0.0006868292111903429,-0.04649852588772774,0.0020535634830594063
1760107122577195800,0.11519580078125,0.027485420927405357,-0.05957438051700592,-0.045222606509923935
1760107122587262000,0.125261962890625,0.03695002943277359,-0.019244002178311348,-0.07151492685079575
1760107122597328000,0.135327880859375,0.02642202004790306,0.028491828590631485,-0.05835998058319092
1760107122607392800,0.145392822265625,0.0008404936525039375,0.06199386343359947,-0.02491413801908493
1760107122617459000,0.155458984375,-0.02479829080402851,0.07233811169862747,0.006038185209035873
1760107122627524900,0.16552490234375,-0.035418178886175156,0.0691756084561348,0.019536416977643967
1760107122637590000,0.175590087890625,-0.017980065196752548,0.0664631798863411,0.01967516727745533
1760107122647656000,0.185656005859375,0.007107976824045181,0.05407814681529999,0.007150054909288883
1760107122657721900,0.195721923828125,0.020201673731207848,0.038784146308898926,-0.005566539242863655
1760107122667787800,0.205787841796875,0.017856495454907417,0.021468807011842728,-0.0018884475575760007
1760107122677853000,0.21585302734375,0.009470201097428799,-0.0043838294222950935,0.02099476382136345
1760107122687918800,0.2259189453125,0.002981142606586218,-0.019166503101587296,0.04825488105416298
1760107122697985000,0.235985107421875,-0.0021936458069831133,-0.007994276471436024,0.07091731578111649
1760107122708049700,0.246049560546875,-0.004827778320759535,0.01757819391787052,0.07628677785396576
1760107122718115800,0.25611572265625,0.0072866748087108135,0.03970959410071373,0.057007625699043274
1760107122728181800,0.266181640625,0.01877262257039547,0.048584047704935074,0.02514689788222313
1760107122738247000,0.276246826171875,0.030526749789714813,0.04008669778704643,-0.005311142187565565
1760107122748312800,0.286312744140625,0.029508091509342194,0.024832112714648247,-0.02912060171365738
1760107122758378800,0.296378662109375,0.019106317311525345,0.008142348378896713,-0.03476464003324509
1760107122768444700,0.306444580078125,0.013913950882852077,0.0037020600866526365,-0.021029118448495865
1760107122778509800,0.316509765625,0.010567422956228256,-0.0010716560063883662,-0.00487118773162365
1760107122788576000,0.326575927734375,0.003751328680664301,-0.0059811933897435665,0.00746004655957222
1760107122798642000,0.336641845703125,0.0034376082476228476,-0.002240783767774701,0.002767290687188506
1760107122808706800,0.346706787109375,0.010026268661022186,0.012792494148015976,-0.02034761570394039
1760107122818772700,0.356772705078125,0.018490327522158623,0.01973269134759903,-0.05926785245537758
1760107122828839000,0.3668388671875,0.026081934571266174,0.02888704091310501,-0.07168537378311157
1760107122838903800,0.37690380859375,0.036322854459285736,0.029319806024432182,-0.05452343076467514
1760107122848970000,0.386969970703125,0.030846595764160156,0.01937156729400158,-0.013379987329244614
1760107122859036000,0.397035888671875,0.020490361377596855,0.008262990042567253,0.03165406733751297
1760107122869100800,0.407100830078125,0.003910585772246122,-0.0035665053874254227,0.05987158790230751
1760107122879166700,0.417166748046875,-0.007199855986982584,-0.005498095881193876,0.06631963700056076
1760107122889233000,0.42723291015625,-0.010530139319598675,0.0020543625578284264,0.04608946293592453
1760107122899298800,0.437298828125,-0.006520750001072884,0.017129452899098396,0.008312524296343327
1760107122909363700,0.44736376953125,0.006168413441628218,0.030830083414912224,-0.016926253214478493
1760107122919430000,0.457429931640625,0.016215454787015915,0.037106890231370926,-0.021764418110251427
1760107122929495800,0.467495849609375,0.022769493982195854,0.03542909771203995,-0.008412925526499748
1760107122939561000,0.47756103515625,0.03182823583483696,0.022836074233055115,0.011413775384426117
1760107122949627000,0.487626953125,0.031557127833366394,0.001555818715132773,0.02955043502151966
1760107122959693000,0.497693115234375,0.0246100053191185,-0.022162560373544693,0.031075362116098404
1760107122969757700,0.5077578125,0.015202920883893967,-0.03477555885910988,0.01944560371339321
1760107122979823900,0.517823974609375,0.004503138829022646,-0.022774288430809975,-0.005997438915073872
1760107122989889800,0.527889892578125,-0.0019558256026357412,0.010507235303521156,-0.0331433042883873
1760107122999955000,0.537954833984375,-0.004226969089359045,0.04170563444495201,-0.04484843090176582
1760107123010020900,0.548020751953125,0.00321922916918993,0.05140620097517967,-0.04205983504652977
1760107123020086800,0.558086669921875,0.007315170951187611,0.033305227756500244,-0.016683638095855713
1760107123030152700,0.568152587890625,0.006616090890020132,-0.0011624698527157307,0.01738378405570984
1760107123040217900,0.5782177734375,0.004082892090082169,-0.03166764974594116,0.044648427516222
1760107123050284000,0.588283935546875,0.002119077369570732,-0.03664908930659294,0.054600927978754044
1760107123060350000,0.598349853515625,0.007707454264163971,-0.02353115938603878,0.041418012231588364
1760107123070414800,0.608414794921875,0.010059292428195477,-0.01672465167939663,0.016050605103373528
1760107123080480800,0.618480712890625,0.029950708150863647,-0.016108661890029907,-0.009778860956430435
1760107123090547000,0.628546875,0.04569345340132713,-0.03287592530250549,-0.04111867398023605
1760107123100611800,0.63861181640625,0.0464513897895813,-0.030344057828187943,-0.06695026904344559
1760107123110678000,0.648677978515625,0.03465917706489563,0.00936181005090475,-0.06708289682865143
1760107123120743700,0.65874365234375,0.008813465014100075,0.051167845726013184,-0.06102580204606056
1760107123130808800,0.668808837890625,-0.005189169198274612,0.07050798833370209,-0.05042029544711113
1760107123140874800,0.678874755859375,0.0024138891603797674,0.06426846981048584,-0.0311022587120533
1760107123150941000,0.68894091796875,0.0184628963470459,0.025258485227823257,-0.003823500359430909
1760107123161006600,0.699006591796875,0.02093111351132393,-0.01474432460963726,0.01261219847947359
1760107123171071700,0.70907177734375,0.014416223391890526,-0.04339354485273361,0.01133654359728098
1760107123181138000,0.719137939453125,0.004083691164851189,-0.042989544570446014,-0.013048158027231693
1760107123191203800,0.729203857421875,0.004037618637084961,-0.016807209700345993,-0.03693511337041855
1760107123201268700,0.739268798828125,0.012058527208864689,-0.01671905815601349,-0.047984570264816284
1760107123211334700,0.749334716796875,0.019166236743330956,-0.03954235091805458,-0.030613569542765617
1760107123221400800,0.75940087890625,0.014961106702685356,-0.011711783707141876,0.021946310997009277
1760107123231465700,0.7694658203125,0.008321579545736313,0.0110457269474864,0.060619670897722244
1760107123241532000,0.779531982421875,0.006347111891955137,0.008498946204781532,0.0771632269024849
1760107123251597600,0.78959765625,0.007456052117049694,0.030227411538362503,0.06610924750566483
1760107123261662700,0.799662841796875,0.011811652220785618,0.046904124319553375,0.022113557904958725
1760107123271728600,0.809728759765625,0.013195164501667023,0.03718278929591179,-0.02827318385243416
1760107123281794800,0.819794921875,0.009219064377248287,0.018759306520223618,-0.059858538210392
1760107123291859700,0.829859619140625,-0.002531334524974227,-0.010252904146909714,-0.06681684404611588
1760107123301925600,0.839925537109375,-0.012052135542035103,-0.029763488098978996,-0.03791755437850952
1760107123311991800,0.84999169921875,-0.02099130116403103,-0.020201142877340317,-0.00032330775866284966
1760107123322057700,0.8600576171875,-0.019520170986652374,0.005003280472010374,0.022535935044288635
1760107123332123000,0.870122802734375,-0.011358914896845818,0.032589368522167206,0.028722990304231644
1760107123342188800,0.880188720703125,0.005025651305913925,0.05232711881399155,0.01872415281832218
1760107123352254700,0.890254638671875,0.01949886605143547,0.0487544909119606,-0.0025691515766084194
1760107123362319600,0.900319580078125,0.024351146072149277,0.024472320452332497,-0.015531289391219616
1760107123372385800,0.9103857421875,0.021687718108296394,0.003082076320424676,-0.01788126304745674
1760107123382451700,0.92045166015625,0.02142246812582016,-0.009327455423772335,-0.011892079375684261
1760107123392516600,0.9305166015625,0.019531356170773506,-0.01817048154771328,0.0012266519479453564
1760107123402582500,0.94058251953125,0.010292851366102695,-0.005274123977869749,0.012441756203770638
1760107123412648700,0.950648681640625,-0.0025300029665231705,0.00842570886015892,0.02292422391474247
1760107123422713900,0.9607138671875,-0.019175559282302856,0.03396143019199371,0.027469707652926445
1760107123432779800,0.97077978515625,-0.023997478187084198,0.05138755589723587,0.021872010082006454
1760107123442845700,0.980845703125,-0.02250451035797596,0.058994077146053314,0.001876995898783207
1760107123452911600,0.99091162109375,-0.020362263545393944,0.05294151231646538,-0.017308948561549187
1760107123462976800,1.000976806640625,-0.012733105570077896,0.028677716851234436,-0.026583939790725708
1760107123473042700,1.011042724609375,-0.008237956091761589,-0.003329750383272767,-0.015597335062921047
1760107123483108900,1.02110888671875,-0.007000118959695101,-0.020494623109698296,0.0024381240364164114
1760107123493173800,1.031173828125,0.0033904702868312597,-0.012508334591984749,0.02058517001569271
1760107123503239700,1.04123974609375,0.012911271303892136,0.005569735076278448,0.030961910262703896
1760107123513305600,1.0513056640625,0.010690993629395962,0.02767530269920826,0.024705613031983376
1760107123523370800,1.061370849609375,-0.0075974659994244576,0.04898644983768463,-0.0026522420812398195
1760107123533436700,1.071436767578125,-0.015675099566578865,0.06306924670934677,-0.02829022705554962
1760107123543502800,1.0815029296875,-0.020495155826210976,0.06981822848320007,-0.03717133775353432
1760107123553567700,1.091567626953125,-0.02322489582002163,0.05239449813961983,-0.024924524128437042
1760107123563633700,1.101633544921875,-0.026495523750782013,0.015217568725347519,0.0124233802780509
1760107123573699800,1.111699951171875,-0.022337263450026512,-0.010015349835157394,0.04887193441390991
1760107123583764700,1.1217646484375,-0.01625487022101879,-0.013817278668284416,0.0689428448677063
1760107123593831000,1.131830810546875,-0.013597833923995495,-0.016324378550052643,0.050631217658519745
1760107123603896600,1.141896484375,-0.013992248103022575,0.0013084110105410218,0.013020194135606289
1760107123613962800,1.151962646484375,-0.013480388559401035,0.02551920898258686,-0.029688386246562004
1760107123624027600,1.162027587890625,-0.007062437012791634,0.055035822093486786,-0.05742920562624931
1760107123634093800,1.17209375,0.006077067460864782,0.06910397112369537,-0.05453008785843849
1760107123644159700,1.18215966796875,0.012982910498976707,0.05794985219836235,-0.02827424928545952
1760107123654224600,1.192224609375,0.012032161466777325,0.031687356531620026,0.020835241302847862
1760107123664290600,1.20229052734375,0.00956873781979084,-0.002364886924624443,0.05686461552977562
1760107123674356700,1.212356689453125,0.003549461020156741,-0.027356257662177086,0.06741099804639816
1760107123684422000,1.222421875,0.005350024439394474,-0.03855458274483681,0.054609183222055435
1760107123694487800,1.23248779296875,0.013084908947348595,-0.033974479883909225,0.03792181611061096
1760107123704553700,1.2425537109375,0.02069036476314068,-0.01599840819835663,0.023738352581858635
1760107123714618600,1.25261865234375,0.02755253203213215,0.007844607345759869,0.017676997929811478
1760107123724684800,1.262684814453125,0.02647741325199604,0.03283624351024628,0.01986425183713436
1760107123734750700,1.272750732421875,0.022769227623939514,0.051243480294942856,0.01950392685830593
1760107123744815900,1.28281591796875,0.010426541790366173,0.05832189694046974,0.007582818623632193
1760107123754881500,1.292881591796875,-0.0026964505668729544,0.048469532281160355,-0.008188420906662941
1760107123764947700,1.30294775390625,-0.009318666532635689,0.029315011575818062,-0.015839150175452232
1760107123775012600,1.3130126953125,-0.008023571223020554,0.010297644883394241,-0.015166969038546085
1760107123785078800,1.323078857421875,-0.004693288821727037,-0.007168963085860014,0.0008950884221121669
1760107123795144700,1.333144775390625,-0.003010969841852784,-0.030713703483343124,0.023801736533641815
1760107123805211000,1.3432109375,-0.0033430662006139755,-0.03321307897567749,0.031558457762002945
1760107123815275800,1.35327587890625,-0.00509915454313159,-0.024528512731194496,0.023450730368494987
1760107123825341700,1.363341796875,-0.007757788058370352,-0.0017837852938100696,-0.004192614462226629
1760107123835407600,1.37340771484375,0.0010319749126210809,0.017709221690893173,-0.03316887095570564
1760107123845472800,1.38347265625,0.011742675676941872,0.022943930700421333,-0.048778191208839417
1760107123855539000,1.3935390625,0.006780407857149839,0.006843524985015392,-0.06241410970687866
1760107123865604600,1.4036044921875,0.008291485719382763,0.007251254748553038,-0.05628058314323425
1760107123875669800,1.413669677734375,0.007081078831106424,0.00908750481903553,-0.030360834673047066
1760107123885735700,1.423735595703125,0.008139419369399548,0.00036991306114941835,0.0011251855175942183
1760107123895801900,1.4338017578125,0.0016389093361794949,0.0014644722687080503,0.03412015363574028
1760107123905866500,1.443866455078125,-0.004856273997575045,0.01489133108407259,0.06126894801855087
1760107123915932700,1.4539326171875,-0.006420615129172802,0.04559065401554108,0.07386064529418945
1760107123925998600,1.46399853515625,-0.0035412053111940622,0.07963916659355164,0.07174955308437347
1760107123936063700,1.474063720703125,-0.0011685950448736548,0.0827646553516388,0.03796922042965889
1760107123946130000,1.4841298828125,-0.0016365124611184,0.08524805307388306,-0.006367351859807968
1760107123956195800,1.49419580078125,-0.001133441342972219,0.07237699627876282,-0.037876274436712265
1760107123966261500,1.504261474609375,-0.007980694994330406,0.03466929867863655,-0.055990830063819885
1760107123976326700,1.51432666015625,-0.007958058267831802,0.007041397970169783,-0.05723665654659271
1760107123986392800,1.524392822265625,-0.0005704491049982607,-0.014436996541917324,-0.04875076189637184
1760107123996458800,1.534458740234375,0.014059892855584621,-0.014218084514141083,-0.02996642142534256
1760107124006524000,1.54452392578125,0.02046293020248413,0.006055762059986591,-0.009662481024861336
1760107124016589600,1.554589599609375,0.027834827080368996,0.04159511253237724,0.0008356999605894089
1760107124026655700,1.56465576171875,0.0350932739675045,0.061592258512973785,0.006363889668136835
1760107124036720600,1.574720703125,0.03161225467920303,0.058700863271951675,0.0033364081755280495
1760107124046786800,1.584786865234375,0.026547454297542572,0.030855117365717888,-0.007783354725688696
1760107124056852700,1.594852783203125,0.017062872648239136,-0.014336861670017242,-0.015341405756771564
1760107124066917600,1.604917724609375,0.01386761199682951,-0.04252695292234421,-0.02298814058303833
1760107124076983800,1.61498388671875,0.015298794955015182,-0.03790823370218277,-0.027309652417898178
1760107124087049700,1.6250498046875,0.021087707951664925,-0.0006386260502040386,-0.02461666241288185
1760107124097115000,1.635114990234375,0.033665020018815994,0.04284919798374176,-0.017185645177960396
1760107124107180800,1.645180908203125,0.03436489775776863,0.07030372321605682,-0.02544996701180935
1760107124117246700,1.655246826171875,0.030356841161847115,0.08222004026174545,-0.04451287165284157
1760107124127311600,1.6653115234375,0.022394254803657532,0.07856005430221558,-0.06664267927408218
1760107124137377800,1.675377685546875,0.014846856705844402,0.06041887030005455,-0.07779040187597275
1760107124147443700,1.685443603515625,0.0059257997199893,0.03401096537709236,-0.06130729988217354
1760107124157509400,1.69550927734375,-0.0007392935222014785,-0.004478371702134609,-0.03201226145029068
1760107124167574300,1.70557421875,0.007182012777775526,-0.03807920962572098,-0.004595284350216389
1760107124177640200,1.71564013671875,0.029529130086302757,-0.050036534667015076,0.008084557950496674
1760107124187706000,1.7257060546875,0.04947780445218086,-0.03611699119210243,0.0019331886433064938
1760107124197771300,1.735771240234375,0.06593560427427292,0.005906624719500542,-0.021927936002612114
1760107124207837400,1.74583740234375,0.07219083607196808,0.05465765297412872,-0.05084080994129181
1760107124217903000,1.755903076171875,0.08043944835662842,0.0863596573472023,-0.059965331107378006
1760107124227968300,1.76596826171875,0.08328396826982498,0.1028832420706749,-0.052916210144758224
1760107124238034200,1.7760341796875,0.08318489789962769,0.09020419418811798,-0.028912873938679695
1760107124248100400,1.786100341796875,0.08325840532779694,0.0672975480556488,0.018034927546977997
1760107124258165200,1.796165283203125,0.07502604275941849,0.031191475689411163,0.05296707898378372
1760107124268231200,1.806231201171875,0.06516887992620468,-0.007420632056891918,0.0641571506857872
1760107124278297000,1.816297119140625,0.055755939334630966,-0.027843348681926727,0.051232293248176575
1760107124288362200,1.8263623046875,0.05700176581740379,-0.028256138786673546,0.017286045476794243
1760107124298428400,1.836428466796875,0.06371878832578659,0.0015297196805477142,-0.012168249115347862
1760107124308494300,1.846494384765625,0.0688650831580162,0.03413000702857971,-0.036559075117111206
1760107124318559200,1.856559326171875,0.0740414708852768,0.05742814019322395,-0.03875724971294403
1760107124328625200,1.866625244140625,0.0690552368760109,0.05475885421037674,-0.02635757066309452
1760107124338691300,1.87669140625,0.062000252306461334,0.029163211584091187,-0.006820089183747768
1760107124348756200,1.886756103515625,0.056056343019008636,0.006054962985217571,0.02340998500585556
1760107124358822400,1.896822509765625,0.05108608677983284,-0.0043625240214169025,0.0561402328312397
1760107124368888000,1.90688818359375,0.049480732530355453,0.0007986819837242365,0.07248858362436295
1760107124378954200,1.916954345703125,0.050585679709911346,0.009763414971530437,0.06354781985282898
1760107124389019100,1.92701904296875,0.05416416749358177,0.01605832949280739,0.02461772784590721
1760107124399085300,1.937085205078125,0.04508385434746742,0.03206232935190201,-0.021528461948037148
1760107124409151200,1.947151123046875,0.03511936962604523,0.051603008061647415,-0.05030897632241249
1760107124419216100,1.957216064453125,0.03080691397190094,0.062076687812805176,-0.059365320950746536
1760107124429282300,1.9672822265625,0.029917152598500252,0.05227092653512955,-0.044439371675252914
1760107124439348200,1.97734814453125,0.02983885630965233,0.022179337218403816,-0.005314071662724018
1760107124449413400,1.987413330078125,0.03591139614582062,-0.01002280693501234,0.04079856351017952
1760107124459479300,1.997479248046875,0.037749242037534714,-0.03105778433382511,0.08049271255731583
1760107124469545200,2.007545166015625,0.03801609203219414,-0.024866733700037003,0.09848449379205704
1760107124479610000,2.017610107421875,0.039262451231479645,0.00002609897819638718,0.08908406645059586
1760107124489676300,2.02767626953125,0.03725549206137657,0.022838469594717026,0.04881840571761131
1760107124499742200,2.0377421875,0.042456645518541336,0.036553218960762024,-0.012198875658214092
1760107124509807400,2.047807373046875,0.045396510511636734,0.04481327906250954,-0.05802122503519058
1760107124519873000,2.057873046875,0.04062439128756523,0.04638134688138962,-0.07636801153421402
1760107124529939200,2.067939208984375,0.03188416361808777,0.0384531170129776,-0.06544771790504456
1760107124540004400,2.07800439453125,0.01853586733341217,0.03338751941919327,-0.028000475838780403
1760107124550070300,2.0880703125,0.012504606507718563,0.024891767650842667,0.021517010405659676
1760107124560136200,2.09813623046875,0.008853944949805737,0.0007779093575663865,0.05133109912276268
1760107124570201000,2.108201171875,0.011680091731250286,-0.019165970385074615,0.06295845657587051
1760107124580267300,2.118267333984375,0.012183429673314095,-0.032891105860471725,0.05495353043079376
1760107124590333200,2.128333251953125,0.007765511516481638,-0.0267112385481596,0.020318321883678436
1760107124600398300,2.1383984375,0.003932423423975706,-0.0037111148703843355,-0.020147079601883888
1760107124610464300,2.14846435546875,0.0005379585199989378,0.028358669951558113,-0.046293195337057114
1760107124620530200,2.1585302734375,0.000767523015383631,0.05349544808268547,-0.057788997888565063
1760107124630595300,2.16859521484375,-0.0012713931500911713,0.046702791005373,-0.04382684454321861
1760107124640661200,2.1786611328125,-0.006907440721988678,0.020001139491796494,-0.020302608609199524
1760107124650727200,2.18872705078125,-0.009437177330255508,-0.002627741079777479,0.00628905463963747
1760107124660793300,2.19879345703125,-0.009878995828330517,-0.022974558174610138,0.024268588051199913
1760107124670858200,2.208858154296875,-0.009276589378714561,-0.03404638543725014,0.030072947964072227
1760107124680924200,2.218924072265625,-0.009876333177089691,-0.02720791846513748,0.015917448326945305
1760107124690990300,2.228990234375,-0.009438509121537209,-0.00020746025256812572,0.0022306637838482857
1760107124701055200,2.23905517578125,-0.0031726236920803785,0.03742673248052597,-0.010300308465957642
1760107124711121400,2.249121337890625,0.006148439832031727,0.06322557479143143,-0.015313975512981415
1760107124721187000,2.25918701171875,0.017496168613433838,0.06426180899143219,-0.008506136015057564
1760107124731252200,2.269252197265625,0.02677382342517376,0.036684777587652206,0.014111025258898735
1760107124741318100,2.279318115234375,0.03899373859167099,-0.003156378399580717,0.0435008704662323
1760107124751384300,2.28938427734375,0.040593765676021576,-0.025122396647930145,0.06339628249406815
1760107124761449200,2.29944921875,0.0351896770298481,-0.032769396901130676,0.06505410373210907
1760107124771515100,2.30951513671875,0.030132602900266647,-0.026224147528409958,0.05583024397492409
1760107124781581000,2.3195810546875,0.02016172744333744,-0.015206916257739067,0.025011876598000526
1760107124791646200,2.329646240234375,0.021913820877671242,-0.0019896477460861206,-0.005821669939905405
1760107124801712400,2.33971240234375,0.028142688795924187,0.015567507594823837,-0.01884612627327442
1760107124811778300,2.3497783203125,0.02707263082265854,0.033299632370471954,-0.025255022570490837
1760107124821843200,2.35984326171875,0.02027943916618824,0.04146142303943634,-0.02498018369078636
1760107124831909000,2.3699091796875,0.009547698311507702,0.0394856221973896,-0.01859552226960659
1760107124841975300,2.379975341796875,-0.000847950461320579,0.020608605816960335,-0.007020358927547932
1760107124852040200,2.390040283203125,-0.010974087752401829,-0.003397927153855562,0.002281530061736703
1760107124862106400,2.4001064453125,-0.014021010138094425,-0.01130991242825985,0.011520301923155785
1760107124872172000,2.410172119140625,-0.014985074289143085,-0.02551627904176712,0.0030386666767299175
1760107124882237200,2.4202373046875,-0.008276306092739105,-0.030892135575413704,-0.018253572285175323
1760107124892303000,2.43030322265625,0.0011518171522766352,-0.01679149642586708,-0.03767307475209236
1760107124902369300,2.440369384765625,0.011750665493309498,0.005575061310082674,-0.048526257276535034
1760107124912434400,2.450434326171875,0.024221716448664665,0.03826829418540001,-0.03566798195242882
1760107124922500000,2.4605,0.03201093152165413,0.04587321728467941,-0.013803429901599884
1760107124932566300,2.470566162109375,0.03863474354147911,0.03472708910703659,0.022245917469263077
1760107124942632200,2.480632080078125,0.03905925154685974,0.006956709548830986,0.05734211951494217
1760107124952697300,2.490697265625,0.03385942801833153,-0.02731551043689251,0.07512511312961578
1760107124962763300,2.50076318359375,0.02225310727953911,-0.05169914662837982,0.06838225573301315
1760107124972829400,2.510829345703125,0.020184097811579704,-0.06005241721868515,0.03911038488149643
1760107124982894000,2.52089404296875,0.024209199473261833,-0.052145760506391525,-0.006869091186672449
1760107124992960300,2.530960205078125,0.030491329729557037,-0.03556118905544281,-0.04285052791237831
1760107125003026200,2.541026123046875,0.035344406962394714,-0.019331086426973343,-0.05631733313202858
1760107125013091300,2.55109130859375,0.031039142981171608,-0.0036818201187998056,-0.05162111669778824
1760107125023157000,2.561156982421875,0.026037726551294327,0.009953830391168594,-0.022785207256674767
1760107125033223200,2.57122314453125,0.023314643651247025,0.006909305229783058,0.006617689039558172
1760107125043288300,2.581288330078125,0.015161375515162945,0.0018485001055523753,0.033000826835632324
1760107125053354200,2.591354248046875,0.02075348235666752,0.008408664725720882,0.04946688562631607
1760107125063420400,2.60142041015625,0.025060612708330154,0.011151188053190708,0.04404229298233986
1760107125073485000,2.611485107421875,0.028969865292310715,0.012564261443912983,0.021587051451206207
1760107125083551200,2.62155126953125,0.02966654859483242,0.008851548656821251,-0.008668056689202785
1760107125093617200,2.6316171875,0.0280300360172987,0.00047404266661033034,-0.02888677641749382
1760107125103682300,2.641682373046875,0.017957162111997604,-0.001755023142322898,-0.03359204903244972
1760107125113748200,2.651748291015625,-0.001776062068529427,0.009770872071385384,-0.028553081676363945
1760107125123814400,2.661814453125,-0.012738964520394802,0.026520824059844017,-0.015739016234874725
1760107125133879300,2.67187939453125,-0.01667165383696556,0.021138574928045273,-0.004938299767673016
1760107125143945200,2.6819453125,-0.009891512803733349,0.003431216813623905,0.0032402679789811373
1760107125154011100,2.69201123046875,-0.00011930961773032323,-0.009557286277413368,0.011123491451144218
1760107125164076300,2.702076171875,0.012359464541077614,-0.011423363350331783,0.018810439854860306
1760107125174142500,2.712142578125,0.010067281313240528,-0.004911934491246939,0.022767363116145134
1760107125184208400,2.72220849609375,0.002912166528403759,0.019033346325159073,0.02237774431705475
1760107125194273500,2.7322734375,-0.0010066748363897204,0.038724757730960846,0.02365632727742195
1760107125204339200,2.742339111328125,-0.015225025825202465,0.04478158429265022,0.015673501417040825
1760107125214405400,2.7524052734375,-0.03050837479531765,0.0372038260102272,-0.00011930961773032323
1760107125224470300,2.76247021484375,-0.03732074052095413,0.026163693517446518,-0.01678936555981636
1760107125234536400,2.772536376953125,-0.026147447526454926,0.02015533484518528,-0.021193169057369232
1760107125244602400,2.782602294921875,-0.018026137724518776,0.019905265420675278,-0.01016821525990963
1760107125254667300,2.792667236328125,-0.014447116293013096,0.011518438346683979,0.013085441663861275
1760107125264733400,2.8027333984375,-0.011562646366655827,0.0006042712484486401,0.03202051669359207
1760107125274799400,2.81279931640625,-0.013827132061123848,-0.00529489666223526,0.03869865834712982
1760107125284864500,2.822864501953125,-0.01074132788926363,-0.009090433828532696,0.025175660848617554
1760107125294930400,2.832930419921875,-0.010274209082126617,-0.0019347865600138903,-0.0008809737046249211
1760107125304996400,2.842996337890625,-0.007022489327937365,0.018621088936924934,-0.020496219396591187
1760107125315061200,2.853061279296875,0.002620816696435213,0.039930373430252075,-0.02574770711362362
1760107125325127400,2.86312744140625,0.012887036427855492,0.04435175284743309,-0.014575480483472347
1760107125335193300,2.873193359375,0.014157097786664963,0.02142965793609619,0.0031904669012874365
1760107125345258500,2.883258544921875,0.005518868565559387,-0.016449812799692154,0.025679530575871468
1760107125355324200,2.89332421875,-0.005109540652483702,-0.038235004991292953,0.03985793516039848
1760107125365390300,2.903390380859375,-0.008577508851885796,-0.04590757191181183,0.04426919296383858
1760107125375456300,2.913456298828125,-0.017078053206205368,-0.04740027338266373,0.03664562851190567
1760107125385521400,2.923521484375,-0.018991533666849136,-0.02442997507750988,0.014034059830009937
1760107125395587300,2.93358740234375,-0.010509366169571877,0.007597732357680798,-0.011937619186937809
1760107125405652200,2.94365234375,-0.00035127095179632306,0.024869663640856743,-0.021828066557645798
1760107125415718400,2.953718505859375,0.00887684803456068,0.028142422437667847,-0.021853100508451462
1760107125425784300,2.963784423828125,0.003665574826300144,0.018785672262310982,-0.006103698629885912
1760107125435850500,2.9738505859375,-0.0018365158466622233,0.007543403655290604,0.009380985051393509
1760107125445915400,2.983915283203125,-0.009317602030932903,-0.0032631712965667248,0.023572703823447227
1760107125455981300,2.993981201171875,-0.016627445816993713,-0.002766491612419486,0.02375726029276848
1760107125466047200,3.004047119140625,-0.016380038112401962,-0.0015243934467434883,0.016051404178142548
1760107125476112400,3.0141123046875,-0.013254286721348763,-0.0037177728954702616,0.0037446708884090185
1760107125486178300,3.02417822265625,-0.007613444700837135,0.00019094864546786994,-0.00005459480235003866
1760107125496244500,3.034244384765625,-0.003985154442489147,0.0075545888394117355,0.014525679871439934
1760107125506309400,3.044309326171875,-0.01185319758951664,0.008985239081084728,0.02702203020453453
1760107125516375300,3.054375244140625,-0.013222062028944492,0.01098447386175394,0.039074964821338654
1760107125526441200,3.064441162109375,-0.009816411882638931,0.013169597834348679,0.0324905663728714
1760107125536506400,3.07450634765625,-0.012766661122441292,0.011593539267778397,0.01630307361483574
1760107125546572500,3.084572509765625,-0.007517304737120867,0.01649508625268936,-0.003935885615646839
1760107125556638200,3.09463818359375,-0.0033071134239435196,0.02377297356724739,-0.02081340178847313
1760107125566703400,3.104703369140625,-0.0041068606078624725,0.021138574928045273,-0.03139307722449303
1760107125576769300,3.114769287109375,-0.0072898706421256065,0.007392668630927801,-0.027480360120534897
1760107125586835500,3.12483544921875,-0.008319182321429253,-0.014360830187797546,-0.024108266457915306
1760107125596900400,3.134900390625,-0.010988202877342701,-0.028447620570659637,-0.007697600871324539
1760107125606966300,3.14496630859375,-0.014044445939362049,-0.014495586045086384,0.00520674604922533
1760107125617032200,3.1550322265625,-0.016572318971157074,0.010311227291822433,0.011335745453834534
1760107125627097300,3.165097412109375,-0.01369024533778429,0.031916387379169464,0.005526325665414333
1760107125637163500,3.17516357421875,-0.0026138925459235907,0.050569433718919754,-0.007800398860126734
1760107125647229400,3.1852294921875,0.019296731799840927,0.04586362838745117,-0.014650581404566765
1760107125657294300,3.19529443359375,0.03537476807832718,0.023678431287407875,-0.004533232655376196
1760107125667360300,3.2053603515625,0.04042225703597069,0.005393700208514929,0.017429057508707047
1760107125677426400,3.215426513671875,0.03728398680686951,-0.005009139887988567,0.03988882526755333
1760107125687491300,3.2254912109375,0.02430959977209568,-0.006386526394635439,0.05362541228532791
1760107125697557500,3.2355576171875,0.012056662701070309,-0.003294063964858651,0.04869190603494644
1760107125707623200,3.245623046875,0.004907939583063126,-0.0026101642288267612,0.030766434967517853
1760107125717688300,3.255688232421875,-0.0013763216556981206,-0.0033071134239435196,0.010292318649590015
1760107125727754200,3.265754150390625,0.002974218223243952,0.014134461060166359,-0.010025735944509506
1760107125737820400,3.2758203125,0.006416886579245329,0.04929004982113838,-0.014034326188266277
1760107125747885600,3.285885498046875,0.008775915019214153,0.06918519735336304,-0.012946691364049911
1760107125757951200,3.295951171875,0.008172442205250263,0.0716765820980072,0.008218248374760151
1760107125768017400,3.306017333984375,0.0044320328161120415,0.05175533890724182,0.0398227795958519
1760107125778082300,3.316082275390625,0.0027276095934212208,0.006688262801617384,0.07377967983484268
1760107125788148500,3.3261484375,0.003855724586173892,-0.03538275882601738,0.09263938665390015
1760107125798214400,3.33621435546875,0.008320247754454613,-0.04591662436723709,0.1104612648487091
1760107125808279300,3.346279296875,0.0018423747969791293,-0.054192133247852325,0.08413378894329071
1760107125818345200,3.35634521484375,-0.0024884575977921486,-0.033722810447216034,0.03900519013404846
1760107125828411400,3.366411376953125,0.0034503915812820196,0.018067417666316032,-0.0027297399938106537
1760107125838476500,3.3764765625,0.0026698189321905375,0.04597548022866249,-0.040954891592264175
1760107125848542500,3.38654248046875,0.008087754249572754,0.05513888597488403,-0.0537247471511364
1760107125858608000,3.396608154296875,0.006951382849365473,0.03566665202379227,-0.04120149835944176
1760107125868673300,3.40667333984375,0.007334611844271421,-0.009281116537749767,-0.02346298098564148
1760107125878739500,3.416739501953125,0.007059773895889521,-0.03367513790726662,-0.008242483250796795
1760107125888805400,3.426805419921875,0.009874202311038971,-0.01980007067322731,0.007702660746872425
1760107125898870500,3.43687060546875,0.00501020485535264,0.0007781756576150656,0.009012136608362198
1760107125908936200,3.446936279296875,0.0029790119733661413,0.032278310507535934,-0.0032170985359698534
1760107125919002400,3.45700244140625,-0.006312756799161434,0.03889280557632446,-0.017366206273436546
1760107125929067300,3.4670673828125,-0.009455286897718906,0.02263287454843521,-0.03652472048997879
1760107125939133400,3.477133544921875,-0.006668022833764553,0.024322383105754852,-0.026760507375001907
1760107125949199400,3.487199462890625,0.007966846227645874,0.02321770414710045,-0.022129271179437637
1760107125959264300,3.49726416015625,0.005225654691457748,0.023193469271063805,-0.0158253014087677
1760107125969330400,3.507330322265625,-0.008461661636829376,0.02761964313685894,-0.012062255293130875
1760107125979396400,3.517396240234375,-0.023309849202632904,0.009476859122514725,-0.020421652123332024
1760107125989461500,3.52746142578125,-0.027584223076701164,-0.009052084758877754,-0.040527187287807465
1760107125999527400,3.53752734375,-0.027897678315639496,-0.04153439402580261,-0.050935883074998856
1760107126009593300,3.54759326171875,-0.02575250156223774,-0.056703224778175354,-0.051773715764284134
1760107126019658200,3.557658203125,-0.019340142607688904,-0.04190217703580856,-0.04012877866625786
1760107126029724400,3.567724365234375,-0.018688999116420746,-0.01170139666646719,-0.020368387922644615
1760107126039790300,3.577790283203125,-0.010187390260398388,0.033060748130083084,-0.007096791639924049
1760107126049855500,3.58785546875,0.0025869945529848337,0.061171479523181915,0.008449943736195564
1760107126059921200,3.597921142578125,0.00953784491866827,0.05746222659945488,0.0070914654061198235
1760107126069987300,3.6079873046875,0.013035907410085201,0.037269607186317444,-0.004456001333892345
1760107126080052500,3.618052490234375,0.020189424976706505,0.019037872552871704,-0.010470218025147915
1760107126090118400,3.628118408203125,0.02292955107986927,0.016229569911956787,-0.002688727341592312
1760107126100184300,3.638184326171875,0.015751799568533897,0.01722026616334915,0.0046091326512396336
1760107126110249200,3.648249267578125,0.010552776046097279,0.024760739877820015,0.013364008627831936
1760107126120315400,3.6583154296875,0.00965768750756979,0.025441709905862808,0.016055665910243988
1760107126130381300,3.66838134765625,0.005790511146187782,0.005504487548023462,0.008763664402067661
1760107126140446500,3.678446533203125,0.0012708604335784912,-0.013849502429366112,-0.0027411917690187693
1760107126150512400,3.688512451171875,0.0013078784104436636,-0.014838866889476776,-0.003394198836758733
1760107126160578800,3.698578857421875,0.004604871850460768,-0.004224838688969612,0.008320247754454613
1760107126170643700,3.708643798828125,0.005350823048502207,0.017895642668008804,0.03887869045138359
1760107126180710000,3.7187099609375,0.006744988262653351,0.03555959090590477,0.07448728382587433
1760107126190775600,3.728775634765625,0.006770021747797728,0.040399353951215744,0.09582293033599854
1760107126200840700,3.7388408203125,0.01082734763622284,0.026281937956809998,0.08325893431901932
1760107126210906600,3.74890673828125,0.008232097141444683,0.0020447750575840473,0.04397038742899895
1760107126220972800,3.758972900390625,0.005799565929919481,-0.006428071763366461,-0.0055028898641467094
1760107126231037700,3.76903759765625,-0.0013741911388933659,0.005417935084551573,-0.04627295583486557
1760107126241103600,3.779103515625,-0.012444685213267803,0.014288924634456635,-0.06408604234457016
1760107126251169800,3.789169677734375,-0.019720174372196198,0.024268854409456253,-0.05137743800878525
1760107126261234700,3.799234619140625,-0.016044480726122856,0.018688466399908066,-0.009011072106659412
1760107126271300900,3.80930078125,-0.012842029333114624,0.011202054098248482,0.043405529111623764
1760107126281366800,3.81936669921875,-0.01101563312113285,0.005583317019045353,0.07388647645711899
1760107126291431700,3.829431640625,-0.008732505142688751,0.009691243059933186,0.0715588703751564
1760107126301497600,3.83949755859375,-0.012632437981665134,0.018660768866539,0.04147979989647865
1760107126311563800,3.849563720703125,-0.022247249260544777,0.017614146694540977,0.0004500742070376873
1760107126321629000,3.85962890625,-0.029701169580221176,0.026186330243945122,-0.03281227499246597
1760107126331694800,3.86969482421875,-0.03248656913638115,0.027284085750579834,-0.03245008364319801
1760107126341760500,3.879760498046875,-0.032103341072797775,0.01973056234419346,-0.01708124950528145
1760107126351825700,3.88982568359375,-0.02496260777115822,0.01458906289190054,0.014710502699017525
1760107126361891800,3.899891845703125,-0.009551960043609142,0.014223943464457989,0.04779601842164993
1760107126371957800,3.909957763671875,-0.003923901356756687,0.008798551745712757,0.06887120753526688
1760107126382022700,3.920022705078125,-0.002916427794843912,0.011293933726847172,0.07029972970485687
1760107126392088600,3.930088623046875,-0.0030085730832070112,0.014703578315675259,0.05281314626336098
1760107126402154800,3.94015478515625,-0.0004093278548680246,0.015995211899280548,0.037040308117866516
1760107126412219600,3.9502197265625,0.00016964336100500077,0.017012538388371468,0.02611389197409153
1760107126422285800,3.960285888671875,0.002459961920976639,0.02430320903658867,0.019106050953269005
1760107126432351700,3.970351806640625,0.004206196404993534,0.018542524427175522,0.019726833328604698
1760107126442416600,3.980416748046875,0.001586178783327341,0.021572137251496315,0.023070698603987694
1760107126452482800,3.99048291015625,-0.006076534744352102,0.025663018226623535,0.007333546411246061
1760107126462548700,4.000548828125,-0.01095491275191307,0.018823489546775818,-0.004263987299054861
1760107126472614000,4.01061376953125,-0.0060416474007070065,0.021771607920527458,-0.011687548831105232
1760107126482679800,4.0206796875,-0.009797503240406513,0.028606610372662544,-0.004612594842910767
1760107126492745700,4.030745849609375,-0.012466256506741047,0.03187510743737221,0.005411277059465647
1760107126502810600,4.040810546875,-0.01429558265954256,0.03392627462744713,0.02076440118253231
1760107126512876800,4.050876708984375,-0.014060425572097301,0.03506344556808472,0.03620221093297005
1760107126522942700,4.060942626953125,-0.007648332044482231,0.026327744126319885,0.04777497798204422
1760107126533007600,4.071007568359375,-0.001112935016863048,0.011977300979197025,0.04663461446762085
1760107126543073500,4.081073486328125,0.004027764778584242,0.010894992388784885,0.02936401404440403
1760107126553139700,4.0911396484375,0.006572148762643337,0.019233882427215576,0.008641159161925316
1760107126563204900,4.101204833984375,0.0062128882855176926,0.026344522833824158,-0.0028221518732607365
1760107126573270800,4.111270751953125,-0.0011134676169604063,0.02280358225107193,-0.009237706661224365
1760107126583336700,4.121336669921875,-0.0022442457266151905,0.006173473782837391,0.00395745737478137
1760107126593401600,4.131401611328125,-0.012370649725198746,0.007545800413936377,0.02486060932278633
1760107126603467800,4.1414677734375,-0.015908125787973404,0.008036620914936066,0.04453497752547264
1760107126613532700,4.15153271484375,-0.019846143200993538,0.010121077299118042,0.04872839152812958
1760107126623598800,4.161598876953125,-0.020136160776019096,0.017716147005558014,0.03140825778245926
1760107126633664800,4.171664794921875,-0.005013667047023773,0.02636289782822132,-0.0010125337867066264
1760107126643729700,4.181729736328125,0.013057478703558445,0.03447222337126732,-0.020433902740478516
1760107126653795800,4.1917958984375,0.01333071943372488,0.03214888274669647,-0.020675716921687126
1760107126663861800,4.20186181640625,0.006774548906832933,0.016339825466275215,-0.001847701147198677
1760107126673927000,4.211927001953125,-0.002510561840608716,0.008402006700634956,0.025171665474772453
1760107126683992600,4.22199267578125,-0.0035830168053507805,-0.002260491019114852,0.03862036392092705
1760107126694058800,4.232058837890625,-0.01308384444564581,-0.014394918456673622,0.031647939234972
1760107126704123600,4.24212353515625,-0.021627530455589294,0.0014210627414286137,0.012463327497243881
1760107126714189800,4.25218994140625,-0.023987624794244766,0.03886803612112999,0.001443166984245181
1760107126724255700,4.262255859375,-0.01948448456823826,0.07265875488519669,-0.00791225116699934
1760107126734320600,4.272320556640625,-0.012319516390562057,0.07534482330083847,-0.01070857048034668
1760107126744386600,4.282386474609375,-0.0016138756182044744,0.04752837121486664,-0.004701544530689716
1760107126754452700,4.29245263671875,0.008687231689691544,0.012598349712789059,0.014121944084763527
1760107126764518000,4.302517822265625,0.01780616119503975,-0.0126982182264328,0.034496989101171494
1760107126774583800,4.312583740234375,0.015499064698815346,-0.015441806986927986,0.0454348586499691
1760107126784649700,4.322649658203125,0.013455354608595371,-0.001449025934562087,0.04156448692083359
1760107126794714600,4.332714599609375,0.010513360612094402,0.027284085750579834,0.022903185337781906
1760107126804780800,4.34278076171875,0.0038541266694664955,0.04815953969955444,-0.010407899506390095
1760107126814846700,4.3528466796875,0.010785003192722797,0.05468028783798218,-0.0419333353638649
1760107126824912000,4.362911865234375,0.012318185530602932,0.04857605695724487,-0.05380357801914215
1760107126834977500,4.3729775390625,0.02082804962992668,0.03182051330804825,-0.04620371386408806
1760107126845043700,4.383043701171875,0.0301405917853117,0.00632048025727272,-0.0178809966892004
1760107126855108900,4.39310888671875,0.028310200199484825,-0.01503780484199524,0.023848341777920723
1760107126865174800,4.4031748046875,0.01810443587601185,0.0025451830588281155,0.05020191892981529
1760107126875240700,4.41324072265625,0.019519371911883354,0.01459039468318224,0.05139075219631195
1760107126885305600,4.4233056640625,0.023095466196537018,0.018247978761792183,0.03557450696825981
1760107126895371800,4.433371826171875,0.023084811866283417,0.033419474959373474,0.0043896883726119995
1760107126905437700,4.443437744140625,0.024266457185149193,0.047927312552928925,-0.03471536934375763
1760107126915502800,4.4535029296875,0.033239979296922684,0.05733439698815346,-0.05227385833859444
1760107126925568800,4.46356884765625,0.04369581490755081,0.04710732400417328,-0.048591770231723785
1760107126935634700,4.473634765625,0.04261217638850212,0.0178716741502285,-0.031798142939805984
1760107126945699600,4.483699462890625,0.040769532322883606,-0.015810389071702957,-0.0052323127165436745
1760107126955765800,4.493765869140625,0.03863714262843132,-0.034985415637493134,0.023840351030230522
1760107126965831700,4.503831787109375,0.03398033604025841,-0.040347687900066376,0.04482286423444748
1760107126975896800,4.513896728515625,0.025682726874947548,-0.02942659892141819,0.043047334998846054
1760107126985962800,4.523962646484375,0.019812054932117462,-0.006829410325735807,0.02202008105814457
1760107126996028700,4.534028564453125,0.03056003898382187,0.03592417761683464,-0.0125791747123003
1760107127006093800,4.54409375,0.057492054998874664,0.06270359456539154,-0.04788097366690636
1760107127016159700,4.55415966796875,0.07775658369064331,0.05362061783671379,-0.06233314797282219
1760107127026226000,4.564225830078125,0.07226487249135971,0.0431370846927166,-0.04639359563589096
1760107127036290600,4.57429052734375,0.04940483346581459,0.0271298885345459,-0.0225569736212492
1760107127046356700,4.584356689453125,0.017668742686510086,0.012960539199411869,-0.010839864611625671
1760107127056422700,4.594422607421875,-0.007984689436852932,0.0046546729281544685,-0.008422513492405415
1760107127066487800,4.60448779296875,-0.017126522958278656,0.001958488719537854,-0.018918562680482864
1760107127076553700,4.6145537109375,-0.018930546939373016,-0.007160174660384655,-0.03539740666747093
1760107127086618600,4.62461865234375,-0.012027367949485779,-0.018638398498296738,-0.041800178587436676
1760107127096684800,4.634684814453125,-0.005830724723637104,-0.01786235347390175,-0.03588423132896423
1760107127106750700,4.644750732421875,-0.00358807691372931,0.002231462625786662,-0.0313296914100647
1760107127116816000,4.65481591796875,0.008891495876014233,0.027848409488797188,-0.021048560738563538
1760107127126881800,4.6648818359375,0.014073207974433899,0.04061293974518776,-0.0096835196018219
1760107127136947700,4.67494775390625,0.01894359663128853,0.03893914446234703,0.0031196267809718847
1760107127147012600,4.6850126953125,0.0232952032238245,0.04050055518746376,0.015990417450666428
1760107127157078800,4.695078857421875,0.029277727007865906,0.039146069437265396,0.03139414265751839
1760107127167144700,4.705144775390625,0.026318423449993134,0.03389005735516548,0.04105662181973457
1760107127177209900,4.7152099609375,0.021940452978014946,0.0246715247631073,0.03634335845708847
1760107127187275800,4.72527587890625,0.0132124749943614,0.015804262831807137,0.02418949268758297
1760107127197342000,4.735342041015625,0.011237740516662598,0.0018335863715037704,0.014195447787642479
1760107127207406800,4.74540673828125,0.006303968373686075,-0.010793259367346764,0.0026469158474355936
1760107127217472800,4.75547265625,0.006907174363732338,-0.020370252430438995,0.0027566379867494106
1760107127227539000,4.7655390625,0.005788380745798349,-0.01714969240128994,0.007399859372526407
1760107127237603800,4.775603759765625,0.008852880448102951,-0.0065447185188531876,0.022608373314142227
1760107127247670000,4.785669921875,0.019474631175398827,0.005197957623749971,0.03368579223752022
1760107127257736000,4.79573583984375,0.028833512216806412,0.0027260116767138243,0.03271320462226868
1760107127267800800,4.80580078125,0.028980785980820656,-0.0004463458026293665,0.0313696414232254
1760107127277866800,4.81586669921875,0.023806262761354446,0.018158763647079468,0.02172926440834999
1760107127287933000,4.825932861328125,0.01762479916214943,0.03275608271360397,0.009950901381671429
1760107127297997800,4.835997802734375,0.012926450930535793,0.02937093749642372,-0.011550662107765675
1760107127308063700,4.846063720703125,0.006614226847887039,0.010662231594324112,-0.03321734070777893
1760107127318129700,4.856129638671875,0.0067511131055653095,-0.012765330262482166,-0.05182617902755737
1760107127328194800,4.86619482421875,0.0026495789643377066,-0.030277477577328682,-0.05907716974616051
1760107127338261000,4.876260986328125,-0.006292783189564943,-0.027999943122267723,-0.04818297550082207
1760107127348327000,4.886326904296875,-0.008285360410809517,-0.0009528790251351893,-0.021090904250741005
1760107127358391800,4.896391845703125,-0.0062272693030536175,0.02930276095867157,0.009753295220434666
1760107127368457700,4.906457763671875,0.008066981099545956,0.04314028099179268,0.033295903354883194
1760107127378524000,4.91652392578125,0.02153964713215828,0.03645121678709984,0.03894367069005966
1760107127388588800,4.9265888671875,0.030051110312342644,0.023210514336824417,0.04119617119431496
1760107127398655000,4.936655029296875,0.03292199596762657,0.012781042605638504,0.038417428731918335
1760107127408721000,4.946720947265625,0.02352157048881054,0.010163954459130764,0.043169572949409485
1760107127418785800,4.956785888671875,0.012896889820694923,0.01840910129249096,0.04755500331521034
1760107127428852000,4.96685205078125,-0.004502872936427593,0.023628097027540207,0.046239133924245834
1760107127438916900,4.976916748046875,-0.01218769047409296,0.019183281809091568,0.042562905699014664
1760107127448983000,4.986983154296875,-0.011314705945551395,0.022113025188446045,0.039501070976257324
1760107127459048700,4.997048583984375,-0.013125655241310596,0.02522013522684574,0.03471164032816887
1760107127469113900,5.00711376953125,-0.011684618890285492,0.031747542321681976,0.023571904748678207
1760107127479179800,5.0171796875,-0.005527124274522066,0.03269270062446594,0.016751017421483994
1760107127489246000,5.027245849609375,-0.0034357442054897547,0.037105023860931396,0.017182182520627975
1760107127499310800,5.037310791015625,-0.009181248024106026,0.02081899531185627,0.015145396813750267
1760107127509376800,5.047376708984375,-0.004816060420125723,0.014069479890167713,0.017677530646324158
1760107127519442700,5.057442626953125,-0.003087935270741582,0.009166333824396133,0.021209148690104485
1760107127529507800,5.0675078125,0.0008314388687722385,0.003965713083744049,0.00765765318647027
1760107127539574000,5.077573974609375,0.0024381240364164114,0.006265352945774794,-0.015790680423378944
1760107127549640000,5.087639892578125,0.00806245394051075,0.02207387611269951,-0.03501204773783684
1760107127559704800,5.097704833984375,0.008215053007006645,0.03116537630558014,-0.04753609374165535
1760107127569770800,5.107770751953125,0.0017986990278586745,0.029630595818161964,-0.04776192829012871
1760107127579837000,5.1178369140625,-0.0006410228670574725,0.026911508291959763,-0.04139510914683342
1760107127589901800,5.12790185546875,0.006563093978911638,0.009042496792972088,-0.024092553183436394
1760107127599968000,5.137968017578125,0.009878463111817837,0.00347462622448802,-0.0046967510133981705
1760107127610033700,5.14803369140625,0.005332447588443756,0.006822219584137201,0.006204632576555014
1760107127620098800,5.158098876953125,-0.006187322083860636,0.0234062559902668,0.014859640039503574
1760107127630164700,5.168164794921875,-0.009620669297873974,0.03630368039011955,0.016890300437808037
1760107127640231000,5.17823095703125,-0.004613393917679787,0.04039589315652847,0.02082725055515766
1760107127650296000,5.188296142578125,0.00008628641808172688,0.042697396129369736,0.016931312158703804
1760107127660361700,5.19836181640625,-0.006077866069972515,0.03982783854007721,0.009155148640275002
1760107127670428000,5.208427978515625,-0.0027382622938603163,0.04495442658662796,-0.004849882796406746
1760107127680492800,5.218492919921875,0.012385030277073383,0.04449023678898811,-0.01149739883840084
1760107127690559000,5.22855908203125,0.028173847123980522,0.02742922678589821,0.0030948594212532043
1760107127700624000,5.238623779296875,0.025104820728302002,-0.00196354859508574,0.03502509370446205
1760107127710689800,5.248689697265625,0.006925550289452076,-0.015732357278466225,0.0630069300532341
1760107127720755700,5.258755615234375,-0.005342300981283188,-0.0211271233856678,0.07673419266939163
1760107127730820900,5.26882080078125,-0.015841281041502953,-0.014609036035835743,0.05741828680038452
1760107127740887000,5.278886962890625,-0.016866065561771393,0.010932542383670807,0.021615013480186462
1760107127750953000,5.288952880859375,-0.01564474031329155,0.04057299345731735,-0.012956278398633003
1760107127761017900,5.299017822265625,-0.0062459115870296955,0.05663052201271057,-0.034035198390483856
1760107127771083800,5.309083740234375,0.007812116760760546,0.04201935604214668,-0.028597023338079453
1760107127781150000,5.31914990234375,0.02268187701702118,0.007151119876652956,0.00034887410583905876
1760107127791214800,5.32921484375,0.021340709179639816,-0.0242542065680027,0.03352733328938484
1760107127801281000,5.339281005859375,0.010868360288441181,-0.03657132759690285,0.05384032800793648
1760107127811346700,5.3493466796875,-0.010189253836870193,-0.03195154294371605,0.03230813890695572
1760107127821411800,5.359411865234375,-0.024871794506907463,-0.009265669621527195,-0.029957633465528488
1760107127831477800,5.369477783203125,-0.017006946727633476,0.04345399886369705,-0.10083632916212082
1760107127841544000,5.3795439453125,0.0007819040911272168,0.08938606828451157,-0.1450812965631485
1760107127851608800,5.38960888671875,0.009909356012940407,0.125339537858963,-0.14878708124160767
1760107127861674800,5.3996748046875,0.0014495585346594453,0.115204356610775,-0.11639878153800964
1760107127871741000,5.409740966796875,-0.0013670006301254034,0.04081214591860771,-0.05871497839689255
1760107127881805800,5.419805908203125,-0.0031518512405455112,-0.02419907972216606,0.015005048364400864
1760107127891872000,5.4298720703125,-0.0004319647268857807,-0.06766506284475327,0.07633471488952637
1760107127901937000,5.43993701171875,0.00013848437811248004,-0.07680423557758331,0.11457158625125885
1760107127912002800,5.4500029296875,-0.0013217268278822303,-0.05457589402794838,0.10802473872900009
1760107127922068700,5.46006884765625,0.0054182009771466255,-0.005446963477879763,0.06793857365846634
1760107127932134000,5.4701337890625,0.014993863180279732,0.03427834436297417,0.0025835325941443443
1760107127942200000,5.480199951171875,0.01888793706893921,0.0786237046122551,-0.05380970239639282
1760107127952265700,5.490265625,0.023248065263032913,0.10114872455596924,-0.07982239127159119
1760107127962331000,5.500330810546875,0.019707391038537025,0.07727082073688507,-0.07149921357631683
1760107127972396800,5.510396728515625,0.014572285115718842,0.04104170948266983,-0.028369855135679245
1760107127982463000,5.520462890625,0.004414722323417664,0.0010847054654732347,0.036868270486593246
1760107127992528000,5.53052783203125,-0.005618470720946789,-0.020323647186160088,0.0894491896033287
1760107128002593800,5.54059375,-0.008442752994596958,-0.021975073963403702,0.11188206076622009
1760107128012659700,5.55065966796875,-0.010545851662755013,0.018218951299786568,0.08838259428739548
1760107128022724900,5.560724853515625,-0.0008764463127590716,0.0723106786608696,0.03610660508275032
1760107128032790800,5.570790771484375,0.007799333427101374,0.12128674983978271,-0.01900751329958439
1760107128042857000,5.58085693359375,0.01185133308172226,0.13799382746219635,-0.05643025413155556
1760107128052921900,5.590921875,0.014571486040949821,0.1311495006084442,-0.053106892853975296
1760107128062987800,5.60098779296875,0.008134093135595322,0.09171447157859802,-0.015271098352968693
1760107128073054000,5.611053955078125,-0.0046876962296664715,0.041721880435943604,0.03521497920155525
1760107128083118800,5.621118896484375,-0.018797123804688454,-0.009356217458844185,0.06937268376350403
1760107128093185000,5.63118505859375,-0.02256523072719574,-0.03128841519355774,0.07528570294380188
1760107128103249700,5.641249755859375,-0.014808773063123226,-0.024471787735819817,0.06767385452985764
1760107128113315800,5.65131591796875,-0.004296477884054184,0.00018242653459310532,0.04333176091313362
1760107128123381800,5.6613818359375,-0.004707137122750282,0.021925006061792374,0.011236408725380898
1760107128133447000,5.671447021484375,-0.0031968585681170225,0.03815137967467308,-0.017522267997264862
1760107128143513000,5.68151318359375,-0.0062301987782120705,0.045038316398859024,-0.03002900443971157
1760107128153578800,5.691578857421875,-0.010808172635734081,0.034147050231695175,-0.029557891190052032
1760107128163643000,5.701642822265625,-0.01119273342192173,0.024759141728281975,-0.014185859821736813
1760107128173708800,5.711708740234375,-0.016513995826244354,0.010434797964990139,0.012928581796586514
1760107128183775000,5.72177490234375,-0.015472167171537876,-0.004492220003157854,0.03489033877849579
1760107128193840000,5.731840087890625,-0.011876633390784264,-0.016893230378627777,0.053836334496736526
1760107128203906000,5.741906005859375,-0.01272751297801733,-0.02364327758550644,0.05234336480498314
1760107128213972000,5.751971923828125,-0.013052152469754219,-0.012281433679163456,0.02822284959256649
1760107128224036900,5.762036865234375,-0.002313754288479686,0.0036637107841670513,-0.010849984362721443
1760107128234103000,5.77210302734375,-0.004403803031891584,0.021403025835752487,-0.04941735044121742
1760107128244169000,5.7821689453125,-0.011409514583647251,0.03261519968509674,-0.07108908891677856
1760107128254234000,5.792234130859375,-0.019463179633021355,0.031632229685783386,-0.07728413492441177
1760107128264299800,5.8022998046875,-0.023636886849999428,0.021568408235907555,-0.05168929323554039
1760107128274365000,5.812364990234375,-0.021952703595161438,-0.010818293318152428,-0.01804877445101738
1760107128284431000,5.82243115234375,-0.014621286652982235,-0.040233440697193146,0.0072930664755403996
1760107128294497000,5.8324970703125,-0.006803844124078751,-0.05247252807021141,0.024937840178608894
1760107128304562200,5.842562255859375,0.0027917916886508465,-0.04115409404039383,0.017554225400090218
1760107128314627800,5.8526279296875,0.013427125290036201,-0.02232927456498146,-0.004465055651962757
1760107128324694000,5.862694091796875,0.01449904777109623,0.006069344002753496,-0.027461718767881393
1760107128334759000,5.872759033203125,0.009800433181226254,0.03345303237438202,-0.04580503702163696
1760107128344825000,5.8828251953125,-0.0003115898580290377,0.04898911342024803,-0.05222778394818306
1760107128354891000,5.89289111328125,-0.008979646489024162,0.046727024018764496,-0.038310371339321136
1760107128364956000,5.902955810546875,-0.014160826802253723,0.030835144221782684,-0.02580896019935608
1760107128375021800,5.913021728515625,-0.011780759319663048,0.00953811127692461,-0.014406369999051094
1760107128385088000,5.923087890625,-0.004683168604969978,-0.017356885597109795,-0.01074132788926363
1760107128395153200,5.933153076171875,0.003745736088603735,-0.031036479398608208,-0.0056919739581644535
1760107128405219000,5.943218994140625,0.006549245677888393,-0.026035595685243607,0.01381035428494215
1760107128415285000,5.953284912109375,0.0020210728980600834,-0.004317782819271088,0.03063886985182762
1760107128425350000,5.963349853515625,-0.004044010303914547,0.024924257770180702,0.03315182775259018
1760107128435416000,5.973416015625,-0.0014077469240874052,0.03803872689604759,0.02527126856148243
1760107128445482000,5.98348193359375,0.00008468852320220321,0.02172953076660633,0.010801514610648155
1760107128455547100,5.993547119140625,0.006893059704452753,0.0010215885704383254,-0.005763080436736345
1760107128465612800,6.00361279296875,0.010805776342749596,-0.01306147314608097,-0.014455371536314487
1760107128475678000,6.013677978515625,0.011964784003794193,-0.01738724671304226,-0.0065164887346327305
1760107128485743900,6.023743896484375,0.01378052681684494,-0.004975850228220224,0.012314456515014172
1760107128495810000,6.03381005859375,0.007896538823843002,0.0017933726776391268,0.030409570783376694
1760107128505875000,6.043875,0.000030360035452758893,-0.00497984467074275,0.03680834919214249
1760107128515940900,6.05394091796875,-0.005072522908449173,0.0002519350382499397,0.028810076415538788
1760107128526007000,6.064007080078125,-0.006216084118932486,0.0023547669406980276,0.014088921248912811
1760107128536072000,6.074072021484375,-0.0034879420418292284,0.011423629708588123,-0.007454453967511654
1760107128546138000,6.08413818359375,0.005679191090166569,0.02136574313044548,-0.02099636197090149
1760107128556204000,6.0942041015625,0.012834305875003338,0.021741248667240143,-0.020438695326447487
1760107128566269000,6.10426904296875,0.016326775774359703,0.009311743080615997,0.00264771468937397
1760107128576334800,6.1143349609375,0.009640110656619072,-0.011540275998413563,0.01871083676815033
1760107128586401000,6.124401123046875,0.006460295990109444,-0.02472745068371296,0.030839405953884125
1760107128596466200,6.134466064453125,0.00016644757124595344,-0.034209635108709335,0.03393879160284996
1760107128606532000,6.144531982421875,-0.002832538215443492,-0.02148345485329628,0.02256762608885765
1760107128616597000,6.154596923828125,-0.003968109842389822,-0.010655573569238186,0.0028101676143705845
1760107128626663000,6.164662841796875,-0.008205997757613659,0.013215936720371246,-0.015725966542959213
1760107128636729000,6.17472900390625,-0.008301605470478535,0.026754649356007576,-0.04577068239450455
1760107128646794000,6.1847939453125,0.005274390336126089,0.03165460005402565,-0.05504940450191498
1760107128656860000,6.19485986328125,0.008466987870633602,0.025802835822105408,-0.04788097366690636
1760107128666925800,6.20492578125,0.001722532557323575,0.019269302487373352,-0.018488995730876923
1760107128676991000,6.214990966796875,-0.005452289711683989,0.0024857944808900356,0.019174760207533836
1760107128687057000,6.225056884765625,-0.012559467926621437,-0.0157731045037508,0.04387637600302696
1760107128697123000,6.235123046875,-0.001942243310622871,-0.021855497732758522,0.049256227910518646
1760107128707188000,6.24518798828125,0.013098491355776787,-0.015452725812792778,0.034158237278461456
1760107128717254000,6.25525390625,0.028136029839515686,0.0007126618875190616,0.009608951397240162
1760107128727320000,6.265320068359375,0.03184261918067932,0.027816183865070343,-0.02142300084233284
1760107128737385000,6.275385009765625,0.028503013774752617,0.06006307154893875,-0.04158525913953781
1760107128747451100,6.285451171875,0.023037143051624298,0.06458564847707748,-0.03765496611595154
1760107128757517000,6.29551708984375,0.01420290395617485,0.03573962301015854,-0.022118352353572845
1760107128767582000,6.30558203125,0.007758054416626692,-0.00504109775647521,0.005432049743831158
1760107128777647900,6.31564794921875,0.0008660599705763161,-0.029393840581178665,0.030417026951909065
1760107128787713000,6.325713134765625,-0.008565790951251984,-0.037397705018520355,0.039754338562488556
1760107128797779200,6.335779296875,-0.008957542479038239,-0.02262461930513382,0.031673774123191833
1760107128807844900,6.345844970703125,-0.0007502124644815922,0.01750682108104229,0.014841796830296516
1760107128817910000,6.355909912109375,0.007859786972403526,0.051965463906526566,-0.00042264367220923305
1760107128827976000,6.365975830078125,0.014459100551903248,0.057130664587020874,-0.013432451523840427
1760107128838042000,6.3760419921875,0.025006549432873726,0.05645555257797241,-0.01846369542181492
1760107128848107000,6.38610693359375,0.027235615998506546,0.034578483551740646,-0.007072290405631065
1760107128858173000,6.3961728515625,0.019050389528274536,0.002409894485026598,0.0049428269267082214
1760107128868238800,6.40623876953125,0.002020274056121707,-0.015797073021531105,0.03278670832514763
1760107128878304000,6.416303955078125,-0.009272061288356781,-0.0218493714928627,0.05404059961438179
1760107128888370000,6.426369873046875,-0.017855430021882057,-0.02502918615937233,0.05486804246902466
1760107128898436000,6.43643603515625,-0.021138308569788933,-0.011018296703696251,0.03044818714261055
1760107128908501000,6.4465009765625,-0.018368886783719063,0.013580789789557457,-0.0035198999103158712
1760107128918567000,6.45656689453125,-0.01709270104765892,0.04668814316391945,-0.027950141578912735
1760107128928632000,6.466632080078125,-0.0124207166954875,0.06972155719995499,-0.046353116631507874
1760107128938698000,6.476697998046875,-0.008099738508462906,0.071149542927742,-0.047624778002500534
1760107128948764200,6.48676416015625,0.00398701848462224,0.0518842376768589,-0.01968076080083847
1760107128958828800,6.496828857421875,0.006765228230506182,0.006910636555403471,0.017237842082977295
1760107128968895000,6.50689501953125,0.000949150591623038,-0.0386912040412426,0.050935883074998856
1760107128978961000,6.5169609375,0.001764344167895615,-0.055934373289346695,0.0654493123292923
1760107128989026000,6.527026123046875,-0.0026530411560088396,-0.06750047951936722,0.05679137632250786
1760107128999092000,6.537092041015625,-0.003605121048167348,-0.04718349128961563,0.036020852625370026
1760107129009158000,6.547157958984375,-0.007362042553722858,-0.007071225438266993,0.00563897704705596
1760107129019223000,6.55722314453125,-0.00726403808221221,0.030546989291906357,-0.022583073005080223
1760107129029289000,6.5672890625,0.0054634748958051205,0.06051793694496155,-0.03701953589916229
1760107129039355100,6.577355224609375,0.013557886704802513,0.06400055438280106,-0.04711105301976204
1760107129049419800,6.587419677734375,0.018606441095471382,0.040283508598804474,-0.04238021373748779
1760107129059486000,6.59748583984375,0.016147278249263763,0.005169994663447142,-0.019350528717041016
1760107129069551000,6.607551025390625,0.00833542738109827,-0.020113790407776833,0.011053450405597687
1760107129079617000,6.617616943359375,-0.0013467605458572507,-0.02767849899828434,0.03626479580998421
1760107129089683000,6.627682861328125,-0.0030605047941207886,-0.020505275577306747,0.046784017235040665
1760107129099747800,6.637747802734375,0.0014447649009525776,-0.008794290944933891,0.03851516917347908
1760107129109814000,6.64781396484375,0.012912869453430176,0.013494770042598248,0.01931324414908886
1760107129119880000,6.6578798828125,0.02028370089828968,0.033605098724365234,-0.0032293491531163454
1760107129129945000,6.667945068359375,0.026095250621438026,0.03486237674951553,-0.02666090615093708
1760107129140011000,6.678010986328125,0.0214829221367836,0.02766997739672661,-0.03929334506392479
1760107129150077000,6.688076904296875,0.0163014754652977,0.020868796855211258,-0.03705256059765816
1760107129160142300,6.698142333984375,0.01518933940678835,0.009003615006804466,-0.019153721630573273
1760107129170208500,6.70820849609375,0.012529107742011547,-0.005167597904801369,0.0010074737947434187
1760107129180273400,6.7182734375,0.014240987598896027,-0.020788636058568954,0.021457089111208916
1760107129190339300,6.72833935546875,0.020182233303785324,-0.03379657864570618,0.03778146579861641
1760107129200405200,6.7384052734375,0.026103505864739418,-0.022522885352373123,0.053223006427288055
1760107129210470400,6.748470458984375,0.02196948044002056,-0.005305016878992319,0.04971589148044586
1760107129220536600,6.75853662109375,0.007652060594409704,0.021874405443668365,0.029834594577550888
1760107129230602200,6.768602294921875,0.007543670013546944,0.030721427872776985,0.003225354477763176
1760107129240667400,6.77866748046875,0.021512748673558235,0.023436617106199265,-0.012954946607351303
1760107129250733300,6.7887333984375,0.03502536192536354,0.006898652296513319,-0.008815595880150795
1760107129260799500,6.798799560546875,0.03832794725894928,-0.016439426690340042,0.004450408276170492
1760107129270864100,6.808864013671875,0.03203143551945686,-0.02376711554825306,0.01537815760821104
1760107129280930300,6.818930419921875,0.014304370619356632,-0.020375046879053116,0.008668056689202785
1760107129290995500,6.828995361328125,-0.0030099046416580677,-0.007839813828468323,-0.00818203017115593
1760107129301061400,6.839061279296875,-0.008094144985079765,0.010092048905789852,-0.024595357477664948
1760107129311127600,6.84912744140625,-0.0037028591614216566,0.0278561320155859,-0.021746041253209114
1760107129321192200,6.859192138671875,0.00950934924185276,0.04525243118405342,-0.00818069837987423
1760107129331258400,6.86925830078125,0.019993681460618973,0.05024426057934761,0.006161489523947239
1760107129341324300,6.87932421875,0.01949833333492279,0.03392307832837105,0.016083894297480583
1760107129351389400,6.889389404296875,0.01835450530052185,0.009918144904077053,0.027781030163168907
1760107129361455400,6.899455322265625,0.009767143055796623,-0.02359906956553459,0.03645601123571396
1760107129371521500,6.909521484375,0.007225954905152321,-0.04609931632876396,0.029221268370747566
1760107129381586400,6.91958642578125,0.009108543395996094,-0.0433136522769928,0.008823851123452187
1760107129391652400,6.92965234375,0.006274141371250153,-0.031570177525281906,-0.012988769449293613
1760107129401718300,6.93971826171875,0.007786816451698542,-0.001136104459874332,-0.0290572177618742
1760107129411783400,6.949783447265625,0.009738647378981113,0.03963529318571091,-0.03663843870162964
1760107129421849300,6.959849365234375,0.004722849931567907,0.057208430022001266,-0.02966202236711979
1760107129431914200,6.969914306640625,0.00842810608446598,0.04583220183849335,-0.0124220484867692
1760107129441980400,6.97998046875,0.015102786011993885,0.020968664437532425,0.016407735645771027
1760107129452046300,6.99004638671875,0.016386697068810463,-0.008596950210630894,0.029456159099936485
1760107129462111500,7.000111572265625,0.011110175400972366,-0.02646649442613125,0.03712819516658783
1760107129472177200,7.01017724609375,0.0060144830495119095,-0.02436126582324505,0.03455611318349838
1760107129482243300,7.020243408203125,-0.002147573046386242,-0.011217234656214714,0.018820026889443398
1760107129492308500,7.03030859375,0.0025132251903414726,0.006481068674474955,0.006079996936023235
1760107129502374400,7.04037451171875,0.004865595139563084,0.01702958345413208,-0.009542638435959816
1760107129512440300,7.0504404296875,0.012289423495531082,0.027215907350182533,-0.03001702018082142
1760107129522505200,7.060505126953125,0.014897722750902176,0.029215943068265915,-0.04754381626844406
1760107129532571400,7.0705712890625,0.008835835382342339,0.017135843634605408,-0.05301661416888237
1760107129542636300,7.08063623046875,0.004809668753296137,0.0008998821140266955,-0.03931198641657829
1760107129552702500,7.090702392578125,0.009786318056285381,-0.009163671173155308,-0.004866394214332104
1760107129562768400,7.100768310546875,0.012288890779018402,-0.019565977156162262,0.02540069818496704
1760107129572833300,7.110833251953125,0.016561666503548622,-0.024570856243371964,0.041129592806100845
1760107129582899500,7.1208994140625,0.030604515224695206,-0.00564004248008132,0.03630581125617027
1760107129592965400,7.13096533203125,0.04609984904527664,0.013431652449071407,0.010697385296225548
1760107129603030500,7.141030517578125,0.04372217878699303,0.03473773971199989,-0.023207051679491997
1760107129613096400,7.151096435546875,0.038475751876831055,0.04255678132176399,-0.0493832603096962
1760107129623162400,7.161162353515625,0.03299683332443237,0.028054270893335342,-0.06143806129693985
1760107129633227300,7.171227294921875,0.024473916739225388,-0.0008436894277110696,-0.05306641384959221
1760107129643293400,7.18129345703125,0.01877448707818985,-0.027606327086687088,-0.030495325103402138
1760107129653358300,7.1913583984375,0.015729693695902824,-0.0376879908144474,-0.006944458931684494
1760107129663424300,7.20142431640625,0.011114169843494892,-0.026460370048880577,-0.004463990684598684
1760107129673490200,7.211490234375,0.015089737251400948,-0.0002532666258048266,-0.013080381788313389
1760107129683555300,7.221555419921875,0.013588246889412403,0.02371891215443611,-0.029680930078029633
1760107129693621500,7.23162158203125,0.008153267204761505,0.036315396428108215,-0.05411916226148605
1760107129703687400,7.2416875,0.010497381910681725,0.05654237046837807,-0.06442505866289139
1760107129713752300,7.25175244140625,0.018996594473719597,0.058460645377635956,-0.0655883327126503
1760107129723818200,7.261818359375,0.015982162207365036,0.04381725564599037,-0.04553339630365372
1760107129733884400,7.271884521484375,0.012956811115145683,0.03478647768497467,-0.006342051550745964
1760107129743949300,7.28194921875,0.013174924068152905,0.01624421775341034,0.02779834158718586
1760107129754015500,7.292015380859375,0.01506816502660513,0.004322310443967581,0.05089780315756798
1760107129764080400,7.302080322265625,0.01792387291789055,0.004260525107383728,0.06047426164150238
1760107129774146300,7.312146240234375,0.021226458251476288,0.011573032476007938,0.044199686497449875
1760107129784212200,7.322212158203125,0.018928151577711105,0.030854051932692528,0.02213859185576439
1760107129794277400,7.33227734375,0.01369290892034769,0.04439809173345566,-0.007798002101480961
1760107129804343600,7.342343505859375,0.010218814946711063,0.048466868698596954,-0.028385035693645477
1760107129814409200,7.3524091796875,-0.00028575718170031905,0.044260673224925995,-0.03135179728269577
1760107129824474400,7.362474365234375,0.0005275722360238433,0.029211414977908134,-0.014900119975209236
1760107129834540300,7.372540283203125,-0.0002884203568100929,0.01369450706988573,0.005655488930642605
1760107129844606500,7.3826064453125,-0.004358795937150717,-0.0016450346447527409,0.02231622487306595
1760107129854671400,7.39267138671875,-0.0073053170926868916,-0.007022755686193705,0.022533804178237915
1760107129864737300,7.4027373046875,-0.00917485635727644,0.0012370382901281118,0.018311895430088043
1760107129874802400,7.412802490234375,-0.010934140533208847,0.017706293612718582,0.012169580906629562
1760107129884868400,7.422868408203125,-0.012181032449007034,0.03888614475727081,0.004713262431323528
1760107129894934500,7.4329345703125,-0.013363742269575596,0.04288168624043465,0.00908404216170311
1760107129904999200,7.442999267578125,-0.012722719460725784,0.03542430326342583,0.0006415555253624916
1760107129915065300,7.4530654296875,-0.008293350227177143,0.018822424113750458,-0.0017670074012130499
1760107129925131300,7.46313134765625,-0.003035204717889428,0.004348675720393658,0.00043835630640387535
1760107129935196400,7.473196533203125,-0.00427091121673584,0.0006647250265814364,0.00021252025908324867
1760107129945262300,7.483262451171875,-0.0027475832030177116,0.008103466592729092,0.013578658923506737
1760107129955328500,7.49332861328125,0.0026256104465574026,0.017610419541597366,0.027583690360188484
1760107129965393400,7.503393310546875,0.00765925133600831,0.021163608878850937,0.03735003620386124
1760107129975459300,7.513459228515625,0.008642490021884441,0.010657438077032566,0.041799645870923996
1760107129985524500,7.5235244140625,0.005082909017801285,0.0007866977830417454,0.03117123432457447
1760107129995590400,7.53359033203125,-0.0070485882461071014,0.004098072182387114,0.01104386243969202
1760107130005656300,7.54365625,-0.00971707608550787,0.017128121107816696,-0.009738647378981113
1760107130015721200,7.55372119140625,-0.010871822014451027,0.027778634801506996,-0.02375885844230652
1760107130025787400,7.563787353515625,-0.005655755288898945,0.03527143597602844,-0.013776798732578754
1760107130035853300,7.573853271484375,0.0046237800270318985,0.03864593058824539,0.007669637445360422
1760107130045918500,7.58391845703125,0.004580636974424124,0.027242273092269897,0.02311144396662712
1760107130055984400,7.593984375,-0.000036218989407643676,0.007345530670136213,0.004930043593049049
1760107130066050300,7.60405029296875,0.005050684791058302,0.004748948849737644,-0.0006828344776295125
1760107130076115500,7.614115478515625,-0.0010988202411681414,0.002130528911948204,-0.01864798553287983
1760107130086181400,7.624181396484375,-0.015353922732174397,0.005288771353662014,-0.036078110337257385
1760107130096246300,7.634246337890625,-0.014830345287919044,0.027357321232557297,-0.035775840282440186
1760107130106312200,7.644312255859375,-0.008099738508462906,0.030817832797765732,-0.028717132285237312
1760107130116378400,7.65437841796875,0.0036511938087642193,0.017473798245191574,-0.009472597390413284
1760107130126443300,7.664443359375,0.0067481836304068565,0.0003432814555708319,0.013910755515098572
1760107130136509400,7.674509521484375,0.0004237089306116104,-0.018135061487555504,0.02700924687087536
1760107130146575400,7.684575439453125,-0.0027859327383339405,-0.03075205348432064,0.02485581487417221
1760107130156640300,7.69464013671875,-0.003611246356740594,-0.01263829693198204,0.006927414797246456
1760107130166706200,7.7047060546875,0.0015672702575102448,0.017194699496030807,-0.01708950474858284
1760107130176771000,7.71477099609375,0.00044528054422698915,0.04177194833755493,-0.03629515692591667
1760107130186837200,7.724837158203125,0.005423794034868479,0.037221938371658325,-0.04328462481498718
1760107130196903200,7.734903076171875,0.00039494677912443876,0.013519536703824997,-0.037628334015607834
1760107130206968000,7.744968017578125,-0.008103200234472752,-0.0036522590089589357,-0.020325245335698128
1760107130217034000,7.755033935546875,-0.0044115264900028706,0.008459530770778656,0.004518851637840271
1760107130227100200,7.76510009765625,0.006150037981569767,0.0454830639064312,0.016982978209853172
1760107130237165300,7.775165283203125,0.0224379301071167,0.05137370899319649,0.01840990036725998
1760107130247231200,7.785231201171875,0.03734550625085831,0.03170786052942276,0.016406936571002007
1760107130257297200,7.795297119140625,0.03762860223650932,0.00857085082679987,0.003683418035507202
1760107130267362000,7.805362060546875,0.024747423827648163,-0.019657591357827187,0.004820853937417269
1760107130277428200,7.81542822265625,0.011052384972572327,-0.0321534089744091,0.01637444645166397
1760107130287493000,7.8254931640625,0.01098660472780466,-0.03610687330365181,0.02593918889760971
1760107130297559300,7.835559326171875,0.010662231594324112,-0.019639747217297554,0.025289643555879593
1760107130307625000,7.845625,0.010037986561655998,0.011687282472848892,0.016579508781433105
1760107130317690000,7.855690185546875,0.009010006673634052,0.024751685559749603,-0.0020189424976706505
1760107130327756300,7.86575634765625,0.0006740460521541536,0.021204354241490364,-0.017979266121983528
1760107130337822200,7.875822265625,0.004379302263259888,0.01948581635951996,-0.023385483771562576
1760107130347887000,7.88588720703125,0.005075985100120306,0.024035828188061714,-0.008616657927632332
1760107130357953000,7.895953125,0.002043709857389331,0.03274649381637573,0.013400760479271412
1760107130368018200,7.90601806640625,-0.004119910299777985,0.04228806868195534,0.030163494870066643
1760107130378084000,7.916083984375,-0.009381251409649849,0.04524577409029007,0.02954084798693657
1760107130388150300,7.926150390625,-0.011212707497179508,0.02575915865600109,0.00583711639046669
1760107130398215200,7.936215087890625,-0.012898487970232964,0.0016186692519113421,-0.010604441165924072
1760107130408281000,7.946281005859375,-0.009070194326341152,0.0009097357979044318,-0.021995579823851585
1760107130418347000,7.956346923828125,-0.005387042183429003,0.008138087578117847,-0.021388379856944084
1760107130428412200,7.966412109375,-0.005732454359531403,0.012060390785336494,-0.01164653617888689
1760107130438478300,7.976478271484375,-0.007190801203250885,0.02021871879696846,-0.002936667762696743
1760107130448544300,7.986544189453125,-0.01558188907802105,0.023139141499996185,0.00029640982393175364
1760107130458609200,7.996609130859375,-0.019092202186584473,0.025300828740000725,-0.003962783608585596
1760107130468675000,8.006675048828125,-0.01450011320412159,0.02021925151348114,-0.010515491478145123
1760107130478740200,8.016740234375,-0.009751164354383945,0.0222706850618124,-0.013996508903801441
1760107130488806100,8.02680615234375,0.002825347473844886,0.025112276896834373,-0.009310944005846977
1760107130498872000,8.0368720703125,0.016457803547382355,0.03347167372703552,0.013463344424962997
1760107130508937200,8.046937255859374,0.022288793697953224,0.025615081191062927,0.03310202807188034
1760107130519003100,8.057003173828125,0.027785291895270348,0.008834504522383213,0.051176369190216064
1760107130529069300,8.0670693359375,0.02292981743812561,0.0031678301747888327,0.05062749236822128
1760107130539134200,8.07713427734375,0.015063105151057243,0.0005243764026090503,0.03037921153008938
1760107130549200100,8.0872001953125,0.011927765794098377,0.006845921743661165,0.0014223942998796701
1760107130559265000,8.09726513671875,0.007792941760271788,0.016108661890029907,-0.019747072830796242
1760107130569331200,8.107331298828125,0.005121791269630194,0.022729814052581787,-0.03015284240245819
1760107130579397000,8.117397216796874,0.005671733990311623,0.022360699251294136,-0.03237657994031906
1760107130589462000,8.1274619140625,0.007094128523021936,0.016704678535461426,-0.02370905689895153
1760107130599528200,8.137528076171876,0.004236822947859764,0.019407253712415695,-0.00133877107873559
1760107130609594000,8.147593994140625,-0.0016812535468488932,0.04246862977743149,0.023751402273774147
1760107130619659300,8.1576591796875,-0.014405038207769394,0.04681357741355896,0.043903276324272156
1760107130629725200,8.16772509765625,-0.02923405170440674,0.044627655297517776,0.053949251770973206
1760107130639790000,8.1777900390625,-0.02105681598186493,0.057248640805482864,0.05809073522686958
1760107130649856000,8.18785595703125,-0.008355135098099709,0.07900373637676239,0.049734801054000854
1760107130659922200,8.197922119140625,0.0036597158759832382,0.06857426464557648,0.04360739886760712
1760107130669987300,8.2079873046875,0.01164813432842493,0.0448758602142334,0.03537583351135254
1760107130680053200,8.21805322265625,0.008219313807785511,0.02732270024716854,0.03580326959490776
1760107130690119200,8.228119140625,-0.00815246906131506,0.021352427080273628,0.03352067619562149
1760107130700184000,8.23818408203125,-0.03327513113617897,0.023489346727728844,0.021345501765608788
1760107130710250200,8.248250244140625,-0.044799696654081345,0.031070301309227943,0.01315335277467966
1760107130720315100,8.258315185546875,-0.042512040585279465,0.05533995479345322,0.013202620670199394
1760107130730381300,8.26838134765625,-0.024829981848597527,0.07654031366109848,0.013903831131756306
1760107130740447000,8.278447021484375,-0.008526909165084362,0.06102340668439865,0.016596553847193718
1760107130750512000,8.28851220703125,0.007831291295588017,0.03398140147328377,0.023445937782526016
1760107130760578000,8.298578125,0.005772934295237064,0.021804630756378174,0.035773444920778275
1760107130770644200,8.308644287109376,-0.005092762876302004,-0.0014674017438665032,0.04457332566380501
1760107130780709400,8.31870947265625,-0.006912501063197851,-0.014160560443997383,0.0336487740278244
1760107130790775000,8.328775146484375,-0.004312190227210522,-0.008933573961257935,0.009923737496137619
1760107130800841200,8.33884130859375,0.002350772265344858,-0.005264803301542997,-0.027357853949069977
1760107130810906000,8.348906005859375,0.004378769546747208,-0.005119660869240761,-0.05850538611412048
1760107130820972300,8.35897216796875,0.009951434098184109,0.0057036918587982655,-0.06501442193984985
1760107130831037000,8.369036865234374,0.014969628304243088,0.009130913764238358,-0.049667421728372574
1760107130841103000,8.37910302734375,0.009828662499785423,0.0073173013515770435,-0.02015000954270363
1760107130851169000,8.3891689453125,0.008923454210162163,0.0020479708909988403,0.009892578236758709
1760107130861234200,8.399234130859375,0.008490956388413906,-0.0139006357640028,0.022039521485567093
1760107130871300000,8.409300048828126,0.013537646271288395,-0.02430640533566475,0.02376844547688961
1760107130881366300,8.4193662109375,0.014963236637413502,-0.018752915784716606,0.022850453853607178
1760107130891431200,8.42943115234375,0.012493154965341091,-0.011393802240490913,0.01678830198943615
1760107130901497000,8.4394970703125,0.010131463408470154,-0.007386011071503162,0.00842437706887722
1760107130911562200,8.449562255859375,0.010794591158628464,-0.006929278839379549,0.005864547099918127
1760107130921628200,8.459628173828126,0.01378265768289566,-0.016509201377630234,0.011257181875407696
1760107130931694000,8.469694091796875,0.01486576534807682,-0.015016499906778336,0.018492724746465683
1760107130941759200,8.47975927734375,0.016895359382033348,0.0029111013282090425,0.014069213531911373
1760107130951825200,8.4898251953125,0.021925538778305054,0.02051353082060814,0.013683854602277279
1760107130961891000,8.49989111328125,0.01543381717056036,0.021893315017223358,0.015472699888050556
1760107130971956200,8.509956298828126,0.007938616909086704,0.027118703350424767,0.01642584428191185
1760107130982022100,8.520022216796875,-0.0007179882377386093,0.018794992938637733,0.02075081877410412
1760107130992087000,8.530087158203125,-0.001955292886123061,0.0020743361674249172,0.025070998817682266
1760107131002153200,8.5401533203125,-0.0043798345141112804,-0.011215636506676674,0.022537266835570335
1760107131012219100,8.55021923828125,-0.0035089810844510794,-0.028143754228949547,0.012746155261993408
1760107131022284000,8.560283935546876,-0.0003779025573749095,-0.032941970974206924,-0.003952397499233484
1760107131032350000,8.570349853515625,0.002543318783864379,-0.025677399709820747,-0.025344770401716232
1760107131042416000,8.580416015625,0.008840896189212799,-0.013630591332912445,-0.03398672863841057
1760107131052481300,8.590481201171874,0.013066799379885197,-0.010274475440382957,-0.031927306205034256
1760107131062547200,8.600547119140625,0.01107422262430191,0.0016580841038376093,-0.016226906329393387
1760107131072612000,8.610612060546876,0.009123457595705986,0.021077055484056473,0.0029443909879773855
1760107131082678000,8.620677978515625,0.007472563534975052,0.03461390361189842,0.011058510281145573
1760107131092744200,8.630744140625,0.008345548063516617,0.040041692554950714,0.006229932885617018
1760107131102809000,8.64080908203125,0.011320032179355621,0.027354393154382706,-0.000041278995922766626
1760107131112875300,8.650875244140625,0.011085407808423042,0.005813946947455406,-0.006076268386095762
1760107131122941200,8.660941162109374,0.010215885937213898,0.0036581179592758417,0.0003454120014794171
1760107131133006000,8.671006103515625,0.014654576778411865,0.004539890680462122,0.002773149637505412
1760107131143072300,8.681072265625,0.01575472764670849,0.009952499531209469,-0.000003994741746282671
1760107131153137200,8.69113720703125,0.019522834569215775,0.007419033907353878,-0.0022799321450293064
1760107131163203800,8.701203857421875,0.017065003514289856,0.0028687571175396442,-0.0029286781791597605
1760107131173269800,8.711269775390624,0.008741559460759163,0.004178766161203384,-0.008469118736684322
1760107131183334700,8.721334716796875,0.0008908273885026574,0.003960386849939823,-0.016576314345002174
1760107131193400600,8.731400634765626,-0.0016655409708619118,0.011767176911234856,-0.018933210521936417
1760107131203466800,8.741466796875,0.0019651465117931366,0.021697038784623146,-0.014846323989331722
1760107131213531600,8.75153173828125,0.003962517250329256,0.025311214849352837,-0.0017531589837744832
1760107131223597800,8.761597900390624,0.00187992537394166,0.02322595939040184,0.019757725298404694
1760107131233662700,8.771662841796875,-0.0010764497565105557,0.021869879215955734,0.0285903662443161
1760107131243728600,8.781728759765626,-0.0032019184436649084,0.015960590913891792,0.03008865937590599
1760107131253794600,8.791794677734375,0.002769421087577939,0.010142914950847626,0.01998862251639366
1760107131263859700,8.801859619140625,0.008806008845567703,0.011393535882234573,-0.008014783263206482
1760107131273925600,8.811925537109374,0.012705675326287746,0.031612519174814224,-0.03245674446225166
1760107131283991600,8.821991455078125,0.010923754423856735,0.029153624549508095,-0.045996785163879395
1760107131294056700,8.832056640625,0.00646562222391367,0.010656905360519886,-0.03861796483397484
1760107131304122600,8.84212255859375,0.006399309728294611,0.000046871635277057067,-0.008537295274436474
1760107131314187800,8.852187744140625,0.009935987181961536,-0.007054447196424007,0.027066238224506378
1760107131324253400,8.86225341796875,0.012567190453410149,-0.01067954208701849,0.05662493035197258
1760107131334319600,8.872319580078125,0.00794287770986557,0.004860801622271538,0.0558592714369297
1760107131344384800,8.882384765625,0.006954045966267586,0.02099716104567051,0.04164118692278862
1760107131354450700,8.89245068359375,-0.0036645096261054277,0.02557140588760376,-0.0028128307312726974
1760107131364516600,8.9025166015625,-0.008274441584944725,0.024631043896079063,-0.04165317118167877
1760107131374581500,8.91258154296875,-0.008289088495075703,0.028476115316152573,-0.06117973476648331
1760107131384647700,8.922647705078125,-0.011396731249988079,0.026102706789970398,-0.05146186053752899
1760107131394712600,8.932712646484376,-0.007303985767066479,0.025177525356411934,-0.024530909955501556
1760107131404778800,8.94277880859375,0.001942509668879211,0.02040647156536579,0.016569921746850014
1760107131414844700,8.9528447265625,0.015721704810857773,0.0073628416284918785,0.03881823644042015
1760107131424909600,8.96290966796875,0.026668095961213112,-0.005846970248967409,0.0454375222325325
1760107131434975700,8.972975830078125,0.02929743565618992,-0.011003382503986359,0.03386155888438225
1760107131445041700,8.983041748046874,0.02142113633453846,-0.011678759939968586,0.0034932682756334543
1760107131455106800,8.99310693359375,0.010438792407512665,-0.0017398431664332747,-0.025855565443634987
1760107131465172700,9.0031728515625,0.006473345682024956,0.017348097637295723,-0.041131190955638885
1760107131475237600,9.013237548828124,0.007389739155769348,0.025948243215680122,-0.0410345196723938
1760107131485303600,9.023303466796875,0.013468937017023563,0.023672839626669884,-0.026856914162635803
1760107131495369700,9.03336962890625,0.016658872365951538,0.01619894430041313,-0.0030298782512545586
1760107131505434600,9.0434345703125,0.01901869848370552,-0.00860440731048584,0.012539227493107319
1760107131515500500,9.05350048828125,0.023555127903819084,-0.014734471216797829,0.021981731057167053
1760107131525566500,9.06356640625,0.0355508029460907,-0.009060340002179146,0.02412797324359417
1760107131535631600,9.073631591796875,0.036548957228660583,-0.004932973068207502,0.016292154788970947
1760107131545697800,9.08369775390625,0.031808529049158096,0.010483533143997192,0.006347644608467817
1760107131555763700,9.093763671875,0.027174629271030426,0.014591725543141365,-0.0057526943273842335
1760107131565828600,9.10382861328125,0.02215084247291088,0.012580506503582,-0.015838084742426872
1760107131575894500,9.11389453125,0.023021962493658066,0.015557920560240746,-0.015206383541226387
1760107131585959700,9.123959716796875,0.023447802290320396,0.02183525823056698,0.00230789533816278
1760107131596025600,9.134025634765624,0.01883494108915329,0.02725532278418541,0.01684955321252346
1760107131606091800,9.144091796875,0.01158421766012907,0.028717665001749992,0.024651017040014267
1760107131616156700,9.15415673828125,0.011096326634287834,0.01973269134759903,0.026159165427088737
1760107131626222600,9.16422265625,0.00549250328913331,-0.0021379857789725065,0.0192519910633564
1760107131636287700,9.174287841796875,-0.0028032432310283184,-0.01804611273109913,0.01158714760094881
1760107131646353700,9.184353759765624,-0.011123491451144218,-0.014074806123971939,-0.002823483431711793
1760107131656419800,9.194419921875,-0.014627145603299141,0.0002801645314320922,-0.008434231393039227
1760107131666484500,9.204484375,-0.02245497517287731,0.019773971289396286,-0.012559734284877777
1760107131676550700,9.214550537109375,-0.02142033725976944,0.0306942630559206,-0.007802795618772507
1760107131686616600,9.224616455078126,-0.01119140163064003,0.029280390590429306,-0.00021678130724467337
1760107131696681700,9.234681640625,0.0005360943032428622,0.019724702462553978,0.010411362163722515
1760107131706747600,9.24474755859375,0.010164220817387104,0.008359395898878574,0.016588829457759857
1760107131716812500,9.2548125,0.012764531187713146,-0.008657936938107014,0.026727750897407532
1760107131726878700,9.264878662109375,0.009786318056285381,-0.015476161614060402,0.025860626250505447
1760107131736944600,9.274944580078126,-0.001472461735829711,-0.025132516399025917,0.015475362539291382
1760107131747009800,9.285009765625,-0.0028482507914304733,-0.018690597265958786,0.004268248099833727
1760107131757075500,9.295075439453125,-0.0003070624661631882,-0.0024716798216104507,-0.009188172407448292
1760107131767140600,9.305140625,0.004832039587199688,0.01733957603573799,-0.026869164779782295
1760107131777206800,9.315206787109375,0.015558985993266106,0.029214611276984215,-0.03259842470288277
1760107131787272700,9.325272705078126,0.020566260442137718,0.02322542853653431,-0.021499965339899063
1760107131797337600,9.335337646484374,0.024699220433831215,0.016080433502793312,0.00013688647595699877
1760107131807403500,9.345403564453125,0.026257170364260674,-0.0021441110875457525,0.030468693003058434
1760107131817469700,9.3554697265625,0.022854715585708618,-0.015185876749455929,0.047860465943813324
1760107131827534600,9.36553466796875,0.017348097637295723,-0.020851751789450645,0.04324840381741524
1760107131837600800,9.375600830078126,0.011048655956983566,-0.024706145748496056,0.017344901338219643
1760107131847665700,9.385665771484375,0.010567156597971916,-0.0068152956664562225,-0.010701646097004414
1760107131857731600,9.395731689453125,0.01570466160774231,0.010095776990056038,-0.03838307410478592
1760107131867797500,9.405797607421874,0.017666345462203026,0.027821244671940804,-0.05161206051707268
1760107131877862700,9.415862548828125,0.02003576047718525,0.04044249653816223,-0.04538878798484802
1760107131887928800,9.4259287109375,0.017106017097830772,0.03429192677140236,-0.02279799059033394
1760107131897994800,9.435994873046875,0.002558498876169324,0.01985759474337101,0.014362693764269352
1760107131908059600,9.4460595703125,-0.008257663808763027,0.0031827439088374376,0.03169241547584534
1760107131918125600,9.45612548828125,-0.00826964806765318,-0.01047474518418312,0.037888526916503906
1760107131928190700,9.466190673828125,0.0003051982494071126,-0.008389489725232124,0.02611016295850277
1760107131938256600,9.476256591796876,0.005203284323215485,0.0024168186355382204,0.003934554290026426
1760107131948322600,9.486322509765625,0.009822537191212177,0.02442571520805359,-0.012489160522818565
1760107131958387700,9.4963876953125,0.010881409980356693,0.025713086128234863,-0.02016226015985012
1760107131968453600,9.50645361328125,0.009196694009006023,0.017763551324605942,-0.013836453668773174
1760107131978519600,9.51651953125,0.009631055407226086,0.009363141842186451,0.001029311795718968
1760107131988584700,9.526584716796876,0.006381200160831213,0.01116317231208086,0.018077004700899124
1760107131998650600,9.536650634765625,-0.001413339632563293,0.015059909783303738,0.03350096940994263
1760107132008715500,9.546715576171875,-0.007017962168902159,0.019818179309368134,0.03001808561384678
1760107132018781700,9.55678173828125,-0.007670436520129442,0.016861271113157272,0.0200986098498106
1760107132028847600,9.56684765625,-0.001538241864182055,0.020562799647450447,0.0028839372098445892
1760107132038912500,9.57691259765625,0.010838000103831291,0.029870813712477684,-0.013125655241310596
1760107132048978700,9.586978759765625,0.02053057588636875,0.02395327016711235,-0.015141136012971401
1760107132059044600,9.597044677734376,0.016587765887379646,0.021686119958758354,-0.0012298477813601494
1760107132069109800,9.60710986328125,0.005672533065080643,0.02791552059352398,0.016951553523540497
1760107132079175700,9.61717578125,0.0007028082036413252,0.026191391050815582,0.03371375426650047
1760107132089240600,9.627240478515626,-0.003400324145331979,0.01025716494768858,0.04836220666766167
1760107132099306500,9.637306396484375,-0.01564500667154789,-0.03900598734617233,0.06580831110477448
1760107132109372700,9.64737255859375,-0.03429405763745308,-0.11168977618217468,0.08298835903406143
1760107132119437600,9.6574375,-0.04811879247426987,-0.1320890635251999,0.09169849753379822
1760107132129503700,9.667503662109375,-0.04307263717055321,-0.10815177112817764,0.10811927914619446
1760107132139568600,9.677568603515626,-0.036124713718891144,-0.08583448082208633,0.08686352521181107
1760107132149634600,9.687634521484375,-0.018084194511175156,-0.04300738871097565,0.037030722945928574
1760107132159700700,9.69770068359375,0.006585464812815189,0.010511497035622597,-0.010726946406066418
1760107132169765600,9.707765625,0.01907728798687458,-0.007767641916871071,-0.05539960786700249
1760107132179831800,9.717831787109375,0.019236013293266296,-0.006374276243150234,-0.07154395431280136
1760107132189897500,9.7278974609375,0.013670538552105427,0.011313107796013355,-0.053954578936100006
1760107132199962600,9.737962646484375,0.0009598032338544726,0.03497849032282829,-0.0290572177618742
1760107132210028500,9.748028564453126,-0.008619586937129498,0.06004629284143448,-0.007391070947051048
1760107132220093700,9.75809375,-0.005638178437948227,0.07691262662410736,-0.0036549223586916924
1760107132230160000,9.768159912109375,0.0031409321818500757,0.04667589068412781,-0.008581770583987236
1760107132240225500,9.7782255859375,0.01056129764765501,-0.005101551301777363,-0.006586263421922922
1760107132250290700,9.788290771484375,0.012882775627076626,-0.041065678000450134,0.00304612354375422
1760107132260356600,9.798356689453126,0.015915583819150925,-0.05482782796025276,0.01876702904701233
1760107132270421800,9.808421875,0.02046213112771511,-0.03590074181556702,0.01961924135684967
1760107132280487400,9.8184873046875,0.02660524472594261,0.012250540778040886,0.007482683751732111
1760107132290553600,9.8285537109375,0.0251570176333189,0.04719068109989166,-0.012530971318483353
1760107132300618800,9.83861865234375,0.021471736952662468,0.05926785245537758,-0.02305098995566368
1760107132310684700,9.8486845703125,0.02063017711043358,0.04209978133440018,-0.025982331484556198
1760107132320750600,9.85875048828125,0.023034745827317238,0.0012042814632877707,-0.009050220251083374
1760107132330815500,9.8688154296875,0.02413196861743927,-0.03933621942996979,0.02057638205587864
1760107132340881700,9.878881591796874,0.02646622806787491,-0.05441557243466377,0.05137823522090912
1760107132350946600,9.888946533203125,0.026226278394460678,-0.045168276876211166,0.0504666343331337
1760107132361012700,9.8990126953125,0.022952187806367874,-0.016594955697655678,0.022111427038908005
1760107132371078700,9.90907861328125,0.013962686993181705,0.01925651915371418,-0.022789202630519867
1760107132381143600,9.9191435546875,0.006914365105330944,0.055565789341926575,-0.0632103979587555
1760107132391209700,9.929209716796874,0.0016753945965319872,0.07236021757125854,-0.08011960238218307
1760107132401275600,9.939275634765625,0.006672816351056099,0.051476240158081055,-0.07608358561992645
1760107132411340800,9.9493408203125,0.01992550492286682,0.025346634909510612,-0.04111281409859657
1760107132421406700,9.95940673828125,0.02888491190969944,0.0091170659288764,0.008958075195550919
1760107132431471600,9.9694716796875,0.019159846007823944,-0.020253606140613556,0.053761232644319534
1760107132441537500,9.97953759765625,0.006163886282593012,-0.020013654604554176,0.08587256073951721
1760107132451603700,9.989603759765625,0.004178233444690704,-0.002606702037155628,0.07900187373161316
1760107132461668600,9.999668701171874,0.01583409123122692,0.01062095258384943,0.04011226445436478
1760107132471734800,10.00973486328125,0.03599315509200096,0.03519420698285103,0.00046605319948866963
1760107132481799700,10.019799560546875,0.03531245142221451,0.06085110083222389,-0.02827424928545952
1760107132491865600,10.029865478515624,0.017941981554031372,0.04632328823208809,-0.03883394971489906
1760107132501931800,10.039931884765625,0.004234159830957651,0.022974558174610138,-0.02009328454732895
1760107132511996700,10.04999658203125,-0.004175570327788591,0.009937052614986897,0.006929811555892229
1760107132522062600,10.0600625,-0.010321080684661865,-0.0003701793903019279,0.0346493236720562
1760107132532128500,10.07012841796875,-0.013641243800520897,-0.006499710958451033,0.041194040328264236
1760107132542193700,10.080193603515625,-0.007093329448252916,-0.005215534474700689,0.020806478336453438
1760107132552259600,10.090259521484375,0.003169428091496229,-0.005049619823694229,-0.009108277037739754
1760107132562324700,10.10032470703125,0.010392453521490097,0.008709868416190147,-0.03452042490243912
1760107132572390700,10.110390625,0.011396198533475399,0.028847627341747284,-0.04132160544395447
1760107132582456600,10.12045654296875,0.0060051619075238705,0.04523086175322533,-0.015568573027849197
1760107132592521700,10.130521728515625,0.008020375855267048,0.03899320587515831,0.016983777284622192
1760107132602587600,10.140587646484375,0.01703544333577156,0.01565219648182392,0.04476640745997429
1760107132612652500,10.150652587890624,0.02358335629105568,-0.007511978503316641,0.06525463610887527
1760107132622718500,10.160718505859375,0.01846209727227688,-0.023685088381171227,0.06088066101074219
1760107132632784600,10.17078466796875,0.005243764258921146,-0.027031084522604942,0.037575870752334595
1760107132642849800,10.180849853515625,-0.006199572701007128,-0.028389297425746918,0.013017531484365463
1760107132652915700,10.190915771484375,-0.013041500002145767,-0.020987840369343758,-0.011856925673782825
1760107132662981600,10.200981689453124,-0.015423164702951908,0.003994741477072239,-0.014418354257941246
1760107132673046500,10.211046630859375,-0.01894972287118435,0.029835926368832588,-0.015684420242905617
1760107132683112700,10.22111279296875,-0.019241871312260628,0.04048457741737366,-0.013495569117367268
1760107132693177600,10.231177490234375,-0.009704292751848698,0.03268870338797569,-0.012145346030592918
1760107132703243800,10.241243896484375,0.001969407545402646,0.030064690858125687,-0.0022027005907148123
1760107132713309700,10.251309814453125,0.008556470274925232,0.01824238710105419,0.010060356929898262
1760107132723374600,10.26137451171875,0.011779161170125008,0.006423810962587595,0.02876586839556694
1760107132733440500,10.2714404296875,0.018372083082795143,-0.011468104086816311,0.03719770163297653
1760107132743505700,10.281505615234375,0.013604491949081421,-0.032887641340494156,0.02659033238887787
1760107132753571800,10.29157177734375,0.006690659560263157,-0.03689330443739891,0.005973204039037228
1760107132763637500,10.301637451171874,-0.0026815368328243494,0.0062339273281395435,-0.02274446003139019
1760107132773702700,10.31170263671875,-0.01290301512926817,0.060498762875795364,-0.04436293616890907
1760107132783768600,10.3217685546875,-0.011773302219808102,0.0807771384716034,-0.050391267985105515
1760107132793834800,10.331834716796875,0.00207699928432703,0.06778783351182938,-0.035289812833070755
1760107132803899600,10.341899658203126,0.017834924161434174,0.025054220110177994,-0.007758054416626692
1760107132813965600,10.351965576171875,0.023448335006833076,-0.026190858334302902,0.02659725584089756
1760107132824030700,10.36203076171875,0.02131061442196369,-0.05997332185506821,0.04326118901371956
1760107132834096600,10.3720966796875,0.011063037440180779,-0.06262556463479996,0.03453853726387024
1760107132844162800,10.382162841796875,0.007955927401781082,-0.044803690165281296,0.013283315114676952
1760107132854227500,10.3922275390625,0.006970291491597891,-0.009874735027551651,-0.008540757931768894
1760107132864293600,10.402293701171875,0.006794522982090712,0.0443355068564415,-0.01636139675974846
1760107132874358500,10.412358642578125,0.010975153185427189,0.07685083895921707,-0.016226373612880707
1760107132884424700,10.4224248046875,0.018619757145643234,0.06999772787094116,-0.01606844924390316
1760107132894490600,10.43249072265625,0.01709216833114624,0.04338795319199562,-0.004366252571344376
1760107132904555500,10.442555419921876,0.011200456880033016,0.007666441611945629,0.003973968792706728
1760107132914621700,10.45262158203125,0.005376656074076891,-0.02359640598297119,0.015400527976453304
1760107132924686600,10.4626865234375,0.002572879893705249,-0.02761724591255188,0.024590032175183296
1760107132934752800,10.472752685546874,0.001175252953544259,-0.007412109989672899,0.030537934973835945
1760107132944818700,10.482818603515625,-0.004490622319281101,-0.0009078715811483562,0.03683790937066078
1760107132954883600,10.492883544921876,-0.013556288555264473,0.0010373012628406286,0.022545788437128067
1760107132964949500,10.502949462890625,-0.007622765842825174,0.02564091421663761,-0.001094825565814972
1760107132975015700,10.513015625,0.007867244072258472,0.04919897019863129,-0.027602333575487137
1760107132985080800,10.523080810546874,0.01998702436685562,0.05371649190783501,-0.0411200076341629
1760107132995146800,10.533146728515625,0.017975006252527237,0.04784528538584709,-0.034570492804050446
1760107133005211600,10.543211669921876,0.00024501082953065634,0.029463084414601326,-0.01209634356200695
1760107133015277600,10.553277587890625,-0.008281898684799671,0.010582869872450829,0.026133332401514053
1760107133025343700,10.56334375,-0.014375210739672184,-0.00932346098124981,0.0554901584982872
1760107133035408600,10.57340869140625,-0.015065502375364304,-0.011891813017427921,0.0678647980093956
1760107133045474800,10.583474853515625,-0.006384395994246006,0.011573565192520618,0.061478808522224426
1760107133055539700,10.593539794921876,-0.003168895374983549,0.02472958154976368,0.01980007067322731
1760107133065605600,10.603605712890625,0.0036690370179712772,0.029474003240466118,-0.025601500645279884
1760107133075671600,10.613671630859375,0.00621022516861558,0.043546412140131,-0.05691814422607422
1760107133085736700,10.62373681640625,0.0002894856152124703,0.0366315133869648,-0.07062410563230515
1760107133095802600,10.633802734375,-0.011530954390764236,0.012558136135339737,-0.06063405051827431
1760107133105867500,10.643867431640626,-0.014373079873621464,-0.00959749985486269,-0.03635108470916748
1760107133115933700,10.65393359375,-0.005087436642497778,-0.012021775357425213,-0.007796403951942921
1760107133125999600,10.66399951171875,0.004430967383086681,0.006103964988142252,0.02106107585132122
1760107133136064800,10.674064697265624,0.00007882956560933962,0.015120097436010838,0.02924363873898983
1760107133146130700,10.684130615234375,0.002252235310152173,0.04405267909169197,0.02497832104563713
1760107133156196600,10.694196533203124,0.011402590200304985,0.06036373972892761,0.016800550743937492
1760107133166261200,10.70426123046875,0.012674782425165176,0.03875352069735527,0.006178533658385277
1760107133176327200,10.7143271484375,0.013967480510473251,0.009222527034580708,0.008378570899367332
1760107133186392000,10.72439208984375,0.02509150467813015,0.01122176181524992,0.029285984113812447
1760107133196458000,10.7344580078125,0.02419188804924488,0.013026585802435875,0.05907796695828438
1760107133206524200,10.744524169921876,0.008900550194084644,0.0390656441450119,0.08346986025571823
1760107133216589300,10.75458935546875,-0.018924422562122345,0.11413110047578812,0.11413722485303879
1760107133226655200,10.7646552734375,-0.042339734733104706,0.14550979435443878,0.1133638396859169
1760107133236720000,10.77472021484375,-0.054361242800951004,0.1445835530757904,0.08337797969579697
1760107133246786000,10.7847861328125,-0.03218217194080353,0.11263334006071091,0.04728442430496216
1760107133256852200,10.794852294921874,-0.0008663262706249952,0.07114874571561813,0.03522403538227081
1760107133266917000,10.804917236328125,-0.00640942994505167,0.10214287787675858,0.10870224237442017
1760107133276983300,10.8149833984375,-0.0344887338578701,-0.000022903184799361043,0.1350041627883911
1760107133287048200,10.825048095703124,-0.010612430982291698,-0.040832117199897766,0.14351294934749603
1760107133297114000,10.835114013671875,0.03571884706616402,-0.05985800549387932,0.1272604763507843
1760107133307180300,10.84518017578125,0.0453224740922451,-0.07019346952438354,0.09592466801404953
1760107133317245200,10.8552451171875,0.03388819098472595,-0.06398005038499832,0.039983369410037994
1760107133327311000,10.86531103515625,0.031862325966358185,-0.06184179708361626,-0.04338662326335907
1760107133337377000,10.875376953125,0.04734514653682709,-0.018933210521936417,-0.12193336337804794
1760107133347442200,10.885442138671875,0.05150260403752327,0.04554617777466774,-0.17009663581848145
1760107133357508000,10.895508056640624,0.04193013906478882,0.07316289097070694,-0.16532371938228607
1760107133367573200,10.9055732421875,0.023502396419644356,0.06880276650190353,-0.10749556869268417
1760107133377639200,10.91563916015625,0.010460363700985909,-0.01522768847644329,-0.04628973454236984
