time,seconds_elapsed,z,y,x
1760107083199758800,0.0117587890625,-0.9172515869140625,-0.3901214599609375,0.05377197265625
1760107083209824500,0.021824462890625,-0.9301300048828125,-0.3859100341796875,0.0517120361328125
1760107083219890700,0.031890625,-0.9319610595703125,-0.3840484619140625,0.0528411865234375
1760107083229955600,0.04195556640625,-0.9285125732421875,-0.3828277587890625,0.0540924072265625
1760107083240021800,0.052021728515625,-0.9232025146484375,-0.384124755859375,0.056793212890625
1760107083250087700,0.062087646484375,-0.9210052490234375,-0.387359619140625,0.060150146484375
1760107083260153900,0.07215380859375,-0.9205322265625,-0.38525390625,0.059661865234375
1760107083270219500,0.082219482421875,-0.920501708984375,-0.38226318359375,0.05535888671875
1760107083280285700,0.09228564453125,-0.921295166015625,-0.38299560546875,0.0502777099609375
1760107083290351600,0.1023515625,-0.920806884765625,-0.3829345703125,0.047119140625
1760107083300417500,0.11241748046875,-0.9192352294921875,-0.3820648193359375,0.04656982421875
1760107083310483700,0.122483642578125,-0.9230499267578125,-0.3826141357421875,0.05029296875
1760107083320548900,0.132548828125,-0.9288330078125,-0.3807830810546875,0.0507659912109375
1760107083330614500,0.142614501953125,-0.9344635009765625,-0.37939453125,0.048492431640625
1760107083340680700,0.1526806640625,-0.941375732421875,-0.3831939697265625,0.0487213134765625
1760107083350746600,0.16274658203125,-0.9442138671875,-0.3878173828125,0.0504608154296875
1760107083360812500,0.1728125,-0.9456024169921875,-0.3881378173828125,0.0572357177734375
1760107083370878700,0.182878662109375,-0.9381256103515625,-0.394073486328125,0.0573883056640625
1760107083380944600,0.192944580078125,-0.9365081787109375,-0.3987579345703125,0.056427001953125
1760107083391010800,0.2030107421875,-0.9339447021484375,-0.399932861328125,0.0544586181640625
1760107083401076500,0.213076416015625,-0.93170166015625,-0.404083251953125,0.047882080078125
1760107083411141600,0.2231416015625,-0.92706298828125,-0.40924072265625,0.050201416015625
1760107083421207600,0.23320751953125,-0.918548583984375,-0.41119384765625,0.0526275634765625
1760107083431273700,0.243273681640625,-0.9073486328125,-0.4170379638671875,0.0464935302734375
1760107083441339600,0.253339599609375,-0.89947509765625,-0.4157257080078125,0.0468597412109375
1760107083451405800,0.26340576171875,-0.894989013671875,-0.405517578125,0.050933837890625
1760107083461471500,0.273471435546875,-0.90228271484375,-0.39971923828125,0.057586669921875
1760107083471537700,0.28353759765625,-0.9137725830078125,-0.38995361328125,0.0605926513671875
1760107083481603600,0.293603515625,-0.9253082275390625,-0.3818511962890625,0.0556793212890625
1760107083491668700,0.303668701171875,-0.933563232421875,-0.3770904541015625,0.0514068603515625
1760107083501734700,0.313734619140625,-0.9426727294921875,-0.3759918212890625,0.0485992431640625
1760107083511800800,0.32380078125,-0.9513702392578125,-0.37774658203125,0.041290283203125
1760107083521866500,0.333866455078125,-0.9617919921875,-0.378173828125,0.0377655029296875
1760107083531932700,0.3439326171875,-0.962249755859375,-0.3793182373046875,0.0367584228515625
1760107083541998600,0.35399853515625,-0.9538421630859375,-0.3785247802734375,0.0380401611328125
1760107083552064800,0.364064697265625,-0.9476470947265625,-0.3775177001953125,0.0427398681640625
1760107083562130700,0.374130615234375,-0.938995361328125,-0.3775634765625,0.0479888916015625
1760107083572196600,0.384196533203125,-0.9331817626953125,-0.3775634765625,0.050384521484375
1760107083582261500,0.394261474609375,-0.9289093017578125,-0.3786773681640625,0.0461273193359375
1760107083592327700,0.40432763671875,-0.92596435546875,-0.381683349609375,0.043121337890625
1760107083602393600,0.4143935546875,-0.92962646484375,-0.3847808837890625,0.055389404296875
1760107083612459800,0.424459716796875,-0.93634033203125,-0.3847198486328125,0.0616455078125
1760107083622525700,0.434525634765625,-0.948577880859375,-0.3791046142578125,0.0628509521484375
1760107083632591600,0.444591552734375,-0.964080810546875,-0.3728790283203125,0.05999755859375
1760107083642657800,0.45465771484375,-0.97442626953125,-0.3721160888671875,0.0499267578125
1760107083652723500,0.464723388671875,-0.975555419921875,-0.3799896240234375,0.037384033203125
1760107083662789600,0.47478955078125,-0.9647216796875,-0.39141845703125,0.0267181396484375
1760107083672854800,0.484854736328125,-0.9492340087890625,-0.3987884521484375,0.0181427001953125
1760107083682920700,0.494920654296875,-0.9370574951171875,-0.4033355712890625,0.012298583984375
1760107083692986600,0.504986572265625,-0.9315032958984375,-0.405670166015625,0.0079803466796875
1760107083703052800,0.515052734375,-0.93499755859375,-0.4014129638671875,0.00726318359375
1760107083713118500,0.525118408203125,-0.94403076171875,-0.3954925537109375,0.010406494140625
1760107083723184600,0.5351845703125,-0.9586944580078125,-0.38427734375,0.0138397216796875
1760107083733250600,0.54525048828125,-0.9647979736328125,-0.3763885498046875,0.0253753662109375
1760107083743316700,0.555316650390625,-0.9634552001953125,-0.370391845703125,0.039825439453125
1760107083753382700,0.565382568359375,-0.9512481689453125,-0.36553955078125,0.044158935546875
1760107083763447800,0.57544775390625,-0.9331207275390625,-0.3687286376953125,0.055389404296875
1760107083773513500,0.585513427734375,-0.9137725830078125,-0.3701019287109375,0.063079833984375
1760107083783579600,0.59557958984375,-0.8954925537109375,-0.36749267578125,0.064453125
1760107083793645600,0.6056455078125,-0.8881683349609375,-0.365478515625,0.06072998046875
1760107083803711700,0.615711669921875,-0.896331787109375,-0.366058349609375,0.0623779296875
1760107083813777700,0.625777587890625,-0.9053802490234375,-0.3627777099609375,0.0677032470703125
1760107083823843800,0.63584375,-0.90557861328125,-0.353118896484375,0.0682373046875
1760107083833909800,0.64590966796875,-0.896514892578125,-0.3541412353515625,0.0683746337890625
1760107083843975400,0.655975341796875,-0.9031524658203125,-0.3625946044921875,0.0769195556640625
1760107083854040600,0.66604052734375,-0.908111572265625,-0.3680877685546875,0.0850982666015625
1760107083864106800,0.676106689453125,-0.910797119140625,-0.3709564208984375,0.0872344970703125
1760107083874172700,0.686172607421875,-0.921417236328125,-0.3766021728515625,0.0852813720703125
1760107083884238600,0.696238525390625,-0.933349609375,-0.379730224609375,0.0811767578125
1760107083894304800,0.7063046875,-0.9493560791015625,-0.38189697265625,0.07733154296875
1760107083904370400,0.716370361328125,-0.96240234375,-0.3825836181640625,0.065887451171875
1760107083914436600,0.7264365234375,-0.9662628173828125,-0.3839263916015625,0.0531158447265625
1760107083924502500,0.73650244140625,-0.96337890625,-0.3885498046875,0.0431976318359375
1760107083934568700,0.746568603515625,-0.9493865966796875,-0.393951416015625,0.03778076171875
1760107083944633600,0.756633544921875,-0.9341278076171875,-0.397705078125,0.03253173828125
1760107083954699800,0.76669970703125,-0.9164886474609375,-0.3988800048828125,0.0273895263671875
1760107083964765400,0.776765380859375,-0.9005126953125,-0.4017486572265625,0.0261077880859375
1760107083974831600,0.78683154296875,-0.894195556640625,-0.4028167724609375,0.0296783447265625
1760107083984897500,0.7968974609375,-0.8965911865234375,-0.4002685546875,0.0278472900390625
1760107083994963700,0.806963623046875,-0.907318115234375,-0.398529052734375,0.023834228515625
1760107084005029600,0.817029541015625,-0.9268035888671875,-0.4007720947265625,0.02362060546875
1760107084015095800,0.827095703125,-0.943572998046875,-0.4016876220703125,0.024810791015625
1760107084025160400,0.837160400390625,-0.9524993896484375,-0.3994903564453125,0.0306396484375
1760107084035226600,0.8472265625,-0.951416015625,-0.397125244140625,0.0392303466796875
1760107084045292500,0.85729248046875,-0.9447174072265625,-0.3987579345703125,0.0419158935546875
1760107084055358700,0.867358642578125,-0.9307861328125,-0.4027862548828125,0.043548583984375
1760107084065424600,0.877424560546875,-0.92156982421875,-0.4056854248046875,0.0465240478515625
1760107084075490800,0.88749072265625,-0.9210052490234375,-0.406585693359375,0.04547119140625
1760107084085556700,0.897556640625,-0.9227752685546875,-0.4058074951171875,0.0462799072265625
1760107084095622700,0.90762255859375,-0.9325408935546875,-0.4042205810546875,0.05206298828125
1760107084105688600,0.9176884765625,-0.9488372802734375,-0.3981781005859375,0.0536651611328125
1760107084115754200,0.927754150390625,-0.95635986328125,-0.39190673828125,0.053131103515625
1760107084125819400,0.9378193359375,-0.952880859375,-0.386688232421875,0.0467071533203125
1760107084135885600,0.947885498046875,-0.936309814453125,-0.390228271484375,0.037872314453125
1760107084145951500,0.957951416015625,-0.9209442138671875,-0.39581298828125,0.03350830078125
1760107084156017700,0.968017578125,-0.91595458984375,-0.3992919921875,0.033599853515625
1760107084166083300,0.978083251953125,-0.917144775390625,-0.3971099853515625,0.0359954833984375
1760107084176149200,0.988149169921875,-0.9207916259765625,-0.39166259765625,0.04022216796875
1760107084186215400,0.99821533203125,-0.9225616455078125,-0.3843536376953125,0.038543701171875
1760107084196281300,1.00828125,-0.917144775390625,-0.3816375732421875,0.033599853515625
1760107084206346500,1.018346435546875,-0.90972900390625,-0.3823089599609375,0.03125
1760107084216412700,1.02841259765625,-0.9048309326171875,-0.3837738037109375,0.0343780517578125
1760107084226478300,1.038478271484375,-0.896636962890625,-0.386810302734375,0.0307159423828125
1760107084236544300,1.048544189453125,-0.8814544677734375,-0.3796539306640625,0.036224365234375
1760107084246610400,1.0586103515625,-0.8755950927734375,-0.370880126953125,0.05169677734375
1760107084256676400,1.06867626953125,-0.8801116943359375,-0.3640594482421875,0.0663299560546875
1760107084266742500,1.078742431640625,-0.892303466796875,-0.3583221435546875,0.0782928466796875
1760107084276808400,1.088808349609375,-0.907012939453125,-0.3619232177734375,0.069671630859375
1760107084286874600,1.09887451171875,-0.915069580078125,-0.3652801513671875,0.0541534423828125
1760107084296939300,1.108939208984375,-0.9242706298828125,-0.3728179931640625,0.042022705078125
1760107084307005400,1.11900537109375,-0.9296722412109375,-0.3812255859375,0.036102294921875
1760107084317071400,1.1290712890625,-0.9325714111328125,-0.3817596435546875,0.039703369140625
1760107084327137500,1.139137451171875,-0.9315643310546875,-0.380279541015625,0.043304443359375
1760107084337203500,1.149203369140625,-0.932708740234375,-0.378204345703125,0.0461273193359375
1760107084347269600,1.15926953125,-0.9330596923828125,-0.379791259765625,0.0500335693359375
1760107084357335600,1.16933544921875,-0.935333251953125,-0.38360595703125,0.0529937744140625
1760107084367401500,1.1794013671875,-0.9377899169921875,-0.3894500732421875,0.047760009765625
1760107084377467400,1.18946728515625,-0.9366607666015625,-0.3946685791015625,0.0415191650390625
1760107084387532500,1.199532470703125,-0.941253662109375,-0.3970947265625,0.0421142578125
1760107084397598500,1.209598388671875,-0.95611572265625,-0.396026611328125,0.044464111328125
1760107084407664600,1.21966455078125,-0.969970703125,-0.3904876708984375,0.0472412109375
1760107084417730600,1.22973046875,-0.9756927490234375,-0.383544921875,0.048858642578125
1760107084427796500,1.23979638671875,-0.975860595703125,-0.3797760009765625,0.0486602783203125
1760107084437862400,1.2498623046875,-0.9744110107421875,-0.380523681640625,0.0487823486328125
1760107084447928300,1.25992822265625,-0.9692840576171875,-0.3819732666015625,0.044830322265625
1760107084457994500,1.269994384765625,-0.9593353271484375,-0.386322021484375,0.040863037109375
1760107084468060400,1.280060302734375,-0.94091796875,-0.3914031982421875,0.03857421875
1760107084478125600,1.29012548828125,-0.9247589111328125,-0.39422607421875,0.0411529541015625
1760107084488191500,1.30019140625,-0.9138946533203125,-0.397857666015625,0.047576904296875
1760107084498257400,1.31025732421875,-0.9105682373046875,-0.3954620361328125,0.0506439208984375
1760107084508323300,1.3203232421875,-0.9195709228515625,-0.3910369873046875,0.0525665283203125
1760107084518389500,1.330389404296875,-0.9394378662109375,-0.38641357421875,0.048858642578125
1760107084528455400,1.340455322265625,-0.9619140625,-0.3820648193359375,0.0409088134765625
1760107084538521600,1.350521484375,-0.9737548828125,-0.37786865234375,0.0355224609375
1760107084548587500,1.36058740234375,-0.970489501953125,-0.374786376953125,0.03204345703125
1760107084558652400,1.37065234375,-0.953826904296875,-0.3732757568359375,0.0312042236328125
1760107084568718300,1.38071826171875,-0.9327239990234375,-0.37481689453125,0.027801513671875
1760107084578784500,1.390784423828125,-0.9165191650390625,-0.378326416015625,0.025421142578125
1760107084588850400,1.400850341796875,-0.907379150390625,-0.384796142578125,0.0238189697265625
1760107084598916600,1.41091650390625,-0.90692138671875,-0.3896636962890625,0.0232086181640625
1760107084608982500,1.420982421875,-0.9114532470703125,-0.3889923095703125,0.0238800048828125
1760107084619048400,1.43104833984375,-0.9186248779296875,-0.38458251953125,0.0229644775390625
1760107084629114400,1.4411142578125,-0.9256134033203125,-0.38006591796875,0.0193328857421875
1760107084639180500,1.4511806640625,-0.92742919921875,-0.3769073486328125,0.0163421630859375
1760107084649245400,1.461245361328125,-0.9275360107421875,-0.3763885498046875,0.0121002197265625
1760107084659311600,1.4713115234375,-0.927886962890625,-0.3780364990234375,0.008758544921875
1760107084669377500,1.48137744140625,-0.9299163818359375,-0.3847198486328125,0.0093841552734375
1760107084679443500,1.491443359375,-0.9235076904296875,-0.3908843994140625,0.014892578125
1760107084689509400,1.50150927734375,-0.9115753173828125,-0.3917388916015625,0.019775390625
1760107084699575600,1.511575439453125,-0.9056854248046875,-0.3921661376953125,0.0257415771484375
1760107084709641500,1.521641357421875,-0.9085540771484375,-0.3939361572265625,0.0321807861328125
1760107084719707400,1.531707275390625,-0.9164581298828125,-0.3919830322265625,0.034271240234375
1760107084729773600,1.541773681640625,-0.9244842529296875,-0.387939453125,0.030609130859375
1760107084739838500,1.55183837890625,-0.926910400390625,-0.385589599609375,0.024993896484375
1760107084749904400,1.561904296875,-0.9261627197265625,-0.3851318359375,0.01849365234375
1760107084759970300,1.57197021484375,-0.9275970458984375,-0.385498046875,0.0133056640625
1760107084770036500,1.582036376953125,-0.932373046875,-0.3856353759765625,0.0143280029296875
1760107084780102400,1.592102294921875,-0.936004638671875,-0.3776092529296875,0.0164031982421875
1760107084790168600,1.60216845703125,-0.9388427734375,-0.3681640625,0.01953125
1760107084800234500,1.612234375,-0.9328765869140625,-0.365509033203125,0.0289306640625
1760107084810300400,1.622300537109375,-0.919769287109375,-0.365997314453125,0.04034423828125
1760107084820365300,1.632365234375,-0.9077301025390625,-0.370269775390625,0.04144287109375
1760107084830431500,1.642431396484375,-0.9022369384765625,-0.3758087158203125,0.034454345703125
1760107084840497400,1.652497314453125,-0.9026336669921875,-0.376800537109375,0.0261077880859375
1760107084850563600,1.6625634765625,-0.9125518798828125,-0.37738037109375,0.0216522216796875
1760107084860629500,1.67262939453125,-0.9277191162109375,-0.375457763671875,0.0262298583984375
1760107084870695400,1.6826953125,-0.94622802734375,-0.3704833984375,0.0283966064453125
1760107084880761300,1.69276123046875,-0.959747314453125,-0.3639373779296875,0.02911376953125
1760107084890827500,1.70282763671875,-0.9653167724609375,-0.35662841796875,0.031219482421875
1760107084900893400,1.7128935546875,-0.95977783203125,-0.3551483154296875,0.0323333740234375
1760107084910958600,1.72295849609375,-0.9498138427734375,-0.3590240478515625,0.03277587890625
1760107084921024500,1.7330244140625,-0.9381103515625,-0.36614990234375,0.0324249267578125
1760107084931090400,1.74309033203125,-0.9248809814453125,-0.3697662353515625,0.0282135009765625
1760107084941156400,1.75315625,-0.920989990234375,-0.370941162109375,0.026641845703125
1760107084951222500,1.763222412109375,-0.923583984375,-0.3697967529296875,0.0269775390625
1760107084961288400,1.773288330078125,-0.9294281005859375,-0.3687896728515625,0.0305023193359375
1760107084971354400,1.783354248046875,-0.9378662109375,-0.3677978515625,0.0390777587890625
1760107084981420500,1.793420654296875,-0.9441375732421875,-0.364898681640625,0.048614501953125
1760107084991486500,1.803486572265625,-0.94476318359375,-0.3629913330078125,0.054931640625
1760107085001551400,1.81355126953125,-0.947662353515625,-0.3617401123046875,0.0625152587890625
1760107085011617500,1.823617431640625,-0.9591522216796875,-0.359466552734375,0.068634033203125
1760107085021683500,1.833683349609375,-0.9746856689453125,-0.358734130859375,0.06964111328125
1760107085031749400,1.843749267578125,-0.985198974609375,-0.3584136962890625,0.0662994384765625
1760107085041815600,1.853815673828125,-0.988800048828125,-0.362030029296875,0.0579681396484375
1760107085051881500,1.863881591796875,-0.9787445068359375,-0.367401123046875,0.0490570068359375
1760107085061947400,1.873947509765625,-0.9655609130859375,-0.37261962890625,0.04541015625
1760107085072013300,1.884013427734375,-0.9537811279296875,-0.3765869140625,0.0450592041015625
1760107085082078500,1.894078369140625,-0.9455413818359375,-0.377532958984375,0.0471954345703125
1760107085092144400,1.904144287109375,-0.94720458984375,-0.37554931640625,0.050628662109375
1760107085102210600,1.91421044921875,-0.9547882080078125,-0.370941162109375,0.0516357421875
1760107085112276500,1.9242763671875,-0.9641265869140625,-0.3680267333984375,0.0489349365234375
1760107085122342400,1.93434228515625,-0.9677581787109375,-0.3666229248046875,0.047821044921875
1760107085132408300,1.944408203125,-0.9675445556640625,-0.3671417236328125,0.0413818359375
1760107085142474500,1.954474609375,-0.9633636474609375,-0.3665008544921875,0.0377044677734375
1760107085152540400,1.96454052734375,-0.9554901123046875,-0.36541748046875,0.04278564453125
1760107085162606600,1.974606689453125,-0.943389892578125,-0.3629608154296875,0.0516357421875
1760107085172671500,1.98467138671875,-0.9298858642578125,-0.3612823486328125,0.0662841796875
1760107085182737400,1.9947373046875,-0.919219970703125,-0.35821533203125,0.0814971923828125
1760107085192803300,2.00480322265625,-0.916473388671875,-0.352569580078125,0.0903778076171875
1760107085202869500,2.014869384765625,-0.9238128662109375,-0.3457794189453125,0.0884857177734375
1760107085212935400,2.024935302734375,-0.9375,-0.343048095703125,0.081024169921875
1760107085223001600,2.035001708984375,-0.9504852294921875,-0.343902587890625,0.068450927734375
1760107085233067500,2.045067626953125,-0.9597320556640625,-0.3456878662109375,0.0569610595703125
1760107085243133400,2.055133544921875,-0.9644622802734375,-0.348480224609375,0.0558319091796875
1760107085253199400,2.065199462890625,-0.9653778076171875,-0.350433349609375,0.061309814453125
1760107085263264500,2.075264404296875,-0.9597930908203125,-0.3541107177734375,0.0667266845703125
1760107085273330400,2.085330322265625,-0.9378204345703125,-0.3522491455078125,0.074249267578125
1760107085283396600,2.095396728515625,-0.9095306396484375,-0.349578857421875,0.0811004638671875
1760107085293462500,2.105462646484375,-0.885528564453125,-0.3495635986328125,0.08367919921875
1760107085303528400,2.115528564453125,-0.8781890869140625,-0.3525848388671875,0.0764007568359375
1760107085313594400,2.125594482421875,-0.8997344970703125,-0.35400390625,0.061767578125
1760107085323660300,2.135660400390625,-0.9394683837890625,-0.3532257080078125,0.040191650390625
1760107085333726500,2.1457265625,-0.98077392578125,-0.35101318359375,0.024505615234375
1760107085343791400,2.155791259765625,-1.00531005859375,-0.3491668701171875,0.020111083984375
1760107085353857500,2.165857421875,-0.999664306640625,-0.3524169921875,0.0233917236328125
1760107085363923500,2.17592333984375,-0.9628753662109375,-0.3592987060546875,0.029541015625
1760107085373989400,2.1859892578125,-0.9141693115234375,-0.3690338134765625,0.0336151123046875
1760107085384055300,2.19605517578125,-0.8773345947265625,-0.3804779052734375,0.035888671875
1760107085394121500,2.20612158203125,-0.8681640625,-0.389312744140625,0.03656005859375
1760107085404187400,2.2161875,-0.8844146728515625,-0.38739013671875,0.032196044921875
1760107085414253600,2.226253662109375,-0.9173126220703125,-0.378631591796875,0.020843505859375
1760107085424319500,2.236319580078125,-0.947784423828125,-0.36895751953125,0.0209197998046875
1760107085434384400,2.24638427734375,-0.9690704345703125,-0.360870361328125,0.036773681640625
1760107085444450300,2.2564501953125,-0.9742431640625,-0.3510589599609375,0.0582275390625
1760107085454516500,2.2665166015625,-0.9600677490234375,-0.3421630859375,0.0753021240234375
1760107085464582400,2.27658251953125,-0.933319091796875,-0.3408203125,0.0831451416015625
1760107085474648600,2.286648681640625,-0.906829833984375,-0.345947265625,0.080718994140625
1760107085484714500,2.296714599609375,-0.8953704833984375,-0.3579559326171875,0.076324462890625
1760107085494780400,2.306780517578125,-0.914337158203125,-0.367706298828125,0.0718231201171875
1760107085504846300,2.316846435546875,-0.9449462890625,-0.364166259765625,0.0597991943359375
1760107085514912300,2.326912353515625,-0.97216796875,-0.353271484375,0.047760009765625
1760107085524977400,2.336977294921875,-0.986236572265625,-0.343536376953125,0.0453948974609375
1760107085535043600,2.347043701171875,-0.9803009033203125,-0.340087890625,0.047607421875
1760107085545109500,2.357109619140625,-0.957000732421875,-0.3439178466796875,0.051971435546875
1760107085555175400,2.367175537109375,-0.931427001953125,-0.355377197265625,0.0513153076171875
1760107085565241300,2.377241455078125,-0.91046142578125,-0.3675994873046875,0.0470123291015625
1760107085575307300,2.387307373046875,-0.9024658203125,-0.37774658203125,0.0427703857421875
1760107085585373400,2.39737353515625,-0.9075927734375,-0.383697509765625,0.0435638427734375
1760107085595439400,2.407439453125,-0.9164276123046875,-0.3832244873046875,0.0433502197265625
1760107085605504500,2.41750439453125,-0.92822265625,-0.3772125244140625,0.042724609375
1760107085615570400,2.4275703125,-0.93756103515625,-0.3697967529296875,0.042022705078125
1760107085625636400,2.43763623046875,-0.942779541015625,-0.3640899658203125,0.0447845458984375
1760107085635702300,2.447702392578125,-0.9470977783203125,-0.3617706298828125,0.0493316650390625
1760107085645768400,2.4577685546875,-0.947845458984375,-0.359130859375,0.0535888671875
1760107085655834400,2.46783447265625,-0.946319580078125,-0.3579559326171875,0.0565643310546875
1760107085665900500,2.477900634765625,-0.950592041015625,-0.3565826416015625,0.06011962890625
1760107085675966500,2.487966552734375,-0.96099853515625,-0.352630615234375,0.0594024658203125
1760107085686032600,2.49803271484375,-0.9679412841796875,-0.350067138671875,0.055023193359375
1760107085696097300,2.50809716796875,-0.96881103515625,-0.3496246337890625,0.048248291015625
1760107085706163500,2.51816357421875,-0.961151123046875,-0.3524169921875,0.047210693359375
1760107085716229400,2.5282294921875,-0.9434967041015625,-0.3563995361328125,0.0481109619140625
1760107085726295600,2.538295654296875,-0.9297027587890625,-0.357147216796875,0.0550994873046875
1760107085736361500,2.548361572265625,-0.92767333984375,-0.3542022705078125,0.0603179931640625
1760107085746427600,2.558427734375,-0.9391937255859375,-0.3515625,0.0632476806640625
1760107085756493600,2.56849365234375,-0.9551849365234375,-0.3470916748046875,0.0635528564453125
1760107085766559500,2.5785595703125,-0.9613800048828125,-0.3427886962890625,0.0524139404296875
1760107085776624400,2.588624267578125,-0.9583282470703125,-0.3434906005859375,0.0426788330078125
1760107085786690600,2.598690673828125,-0.9488067626953125,-0.349639892578125,0.0406951904296875
1760107085796756500,2.608756591796875,-0.9308319091796875,-0.3524932861328125,0.042205810546875
1760107085806822700,2.61882275390625,-0.9139404296875,-0.34918212890625,0.0460968017578125
1760107085816888600,2.628888671875,-0.9150390625,-0.347930908203125,0.0507965087890625
1760107085826954200,2.638954345703125,-0.926910400390625,-0.3412017822265625,0.05963134765625
1760107085837020400,2.6490205078125,-0.939697265625,-0.338470458984375,0.0601348876953125
1760107085847086300,2.65908642578125,-0.9518280029296875,-0.339080810546875,0.055633544921875
1760107085857152500,2.669152587890625,-0.9570465087890625,-0.3416290283203125,0.0488128662109375
1760107085867217700,2.6792177734375,-0.9555816650390625,-0.3448638916015625,0.038726806640625
1760107085877283300,2.689283447265625,-0.95355224609375,-0.3480682373046875,0.037750244140625
1760107085887349200,2.699349365234375,-0.9573211669921875,-0.3504180908203125,0.039337158203125
1760107085897415400,2.70941552734375,-0.9580535888671875,-0.3502960205078125,0.037994384765625
1760107085907481300,2.7194814453125,-0.9584197998046875,-0.3512725830078125,0.0364227294921875
1760107085917547500,2.729547607421875,-0.955413818359375,-0.3527984619140625,0.0337066650390625
1760107085927613400,2.739613525390625,-0.9469757080078125,-0.3537139892578125,0.02813720703125
1760107085937679600,2.7496796875,-0.9356231689453125,-0.3562164306640625,0.0238037109375
1760107085947745500,2.75974560546875,-0.9285125732421875,-0.360107421875,0.0255126953125
1760107085957810400,2.769810546875,-0.92926025390625,-0.3609466552734375,0.028472900390625
1760107085967876400,2.77987646484375,-0.934906005859375,-0.3595123291015625,0.0311737060546875
1760107085977942500,2.789942626953125,-0.94256591796875,-0.3559112548828125,0.03363037109375
1760107085988008400,2.800008544921875,-0.9549560546875,-0.3514862060546875,0.036712646484375
1760107085998074600,2.81007470703125,-0.96319580078125,-0.3468780517578125,0.0375518798828125
1760107086008140500,2.820140625,-0.9637603759765625,-0.34539794921875,0.036865234375
1760107086018206500,2.83020654296875,-0.955169677734375,-0.3456268310546875,0.0367431640625
1760107086028272400,2.8402724609375,-0.9402313232421875,-0.3489990234375,0.0364990234375
1760107086038338300,2.85033837890625,-0.9228515625,-0.3542022705078125,0.0349578857421875
1760107086048403500,2.860403564453125,-0.91021728515625,-0.3558502197265625,0.0346527099609375
1760107086058469600,2.8704697265625,-0.9066314697265625,-0.355865478515625,0.03289794921875
1760107086068535600,2.88053564453125,-0.91241455078125,-0.355010986328125,0.0321807861328125
1760107086078601500,2.8906015625,-0.923583984375,-0.3505096435546875,0.035125732421875
1760107086088667400,2.90066748046875,-0.9375,-0.3455963134765625,0.0418243408203125
1760107086098733300,2.9107333984375,-0.949493408203125,-0.34234619140625,0.0457611083984375
1760107086108799500,2.920799560546875,-0.95867919921875,-0.3422088623046875,0.0503997802734375
1760107086118865000,2.930864990234375,-0.9472503662109375,-0.3410491943359375,0.05377197265625
1760107086128930000,2.940929931640625,-0.929046630859375,-0.3455963134765625,0.05108642578125
1760107086138996200,2.950996337890625,-0.9334869384765625,-0.3556976318359375,0.05401611328125
1760107086149062000,2.961061767578125,-0.93701171875,-0.3595123291015625,0.048065185546875
1760107086159128000,2.971128173828125,-0.9462432861328125,-0.3595428466796875,0.0444183349609375
1760107086169194000,2.981194091796875,-0.9611358642578125,-0.358367919921875,0.04534912109375
1760107086179260000,2.991260009765625,-0.9746551513671875,-0.3534393310546875,0.050811767578125
1760107086189326000,3.001326171875,-0.983795166015625,-0.3467864990234375,0.057708740234375
1760107086199392000,3.01139208984375,-0.98638916015625,-0.3407135009765625,0.057891845703125
1760107086209458200,3.021458251953125,-0.982513427734375,-0.342376708984375,0.053314208984375
1760107086219523000,3.031523193359375,-0.9735107421875,-0.347808837890625,0.0489349365234375
1760107086229589000,3.041589111328125,-0.961090087890625,-0.353485107421875,0.0444793701171875
1760107086239655000,3.051655029296875,-0.95477294921875,-0.357635498046875,0.041748046875
1760107086249721000,3.06172119140625,-0.95196533203125,-0.3592376708984375,0.0425262451171875
1760107086259787000,3.071787109375,-0.954681396484375,-0.35687255859375,0.047027587890625
1760107086269853200,3.081853271484375,-0.959442138671875,-0.353729248046875,0.049285888671875
1760107086279919000,3.091919189453125,-0.9591827392578125,-0.350433349609375,0.0472564697265625
1760107086289985000,3.101985107421875,-0.955413818359375,-0.3506622314453125,0.044036865234375
1760107086300050000,3.1120498046875,-0.94805908203125,-0.3538360595703125,0.0413055419921875
1760107086310116000,3.1221162109375,-0.9388427734375,-0.3549346923828125,0.0408477783203125
1760107086320182000,3.13218212890625,-0.935791015625,-0.3558807373046875,0.0400543212890625
1760107086330248200,3.142248291015625,-0.9346160888671875,-0.3551177978515625,0.039215087890625
1760107086340314000,3.152314208984375,-0.93804931640625,-0.35302734375,0.0416717529296875
1760107086350380000,3.162380126953125,-0.9458160400390625,-0.3495635986328125,0.04345703125
1760107086360446000,3.172446044921875,-0.9512939453125,-0.3450775146484375,0.043975830078125
1760107086370512100,3.18251220703125,-0.9516754150390625,-0.342620849609375,0.0457000732421875
1760107086380578000,3.192578125,-0.9483795166015625,-0.3420562744140625,0.0506591796875
1760107086390643200,3.202643310546875,-0.944854736328125,-0.341644287109375,0.0524444580078125
1760107086400709000,3.212709228515625,-0.944305419921875,-0.34185791015625,0.0576629638671875
1760107086410775000,3.222775146484375,-0.9466552734375,-0.3401947021484375,0.0627593994140625
1760107086420841000,3.232841064453125,-0.9464569091796875,-0.33563232421875,0.0615997314453125
1760107086430907100,3.2429072265625,-0.9398345947265625,-0.3364715576171875,0.0583648681640625
1760107086440973000,3.25297314453125,-0.934112548828125,-0.342437744140625,0.053436279296875
1760107086451039000,3.2630390625,-0.9284820556640625,-0.3504486083984375,0.0482177734375
1760107086461105200,3.273105224609375,-0.925567626953125,-0.3538055419921875,0.04315185546875
1760107086471170000,3.283170166015625,-0.9281158447265625,-0.356048583984375,0.0375518798828125
1760107086481236000,3.293236083984375,-0.938232421875,-0.354736328125,0.0413055419921875
1760107086491302000,3.303302001953125,-0.9481353759765625,-0.34844970703125,0.04669189453125
1760107086501368000,3.3133681640625,-0.95458984375,-0.339996337890625,0.051849365234375
1760107086511434000,3.32343408203125,-0.9581146240234375,-0.3367462158203125,0.0566558837890625
1760107086521500200,3.333500244140625,-0.9547119140625,-0.3371734619140625,0.0536956787109375
1760107086531566000,3.343566162109375,-0.9462738037109375,-0.34368896484375,0.048248291015625
1760107086541632000,3.353632080078125,-0.936553955078125,-0.3499298095703125,0.040863037109375
1760107086551698000,3.363697998046875,-0.9269866943359375,-0.353179931640625,0.03570556640625
1760107086561763000,3.37376318359375,-0.9223480224609375,-0.3564300537109375,0.0362548828125
1760107086571829000,3.3838291015625,-0.927825927734375,-0.3553314208984375,0.040313720703125
1760107086581895200,3.393895263671875,-0.9400177001953125,-0.3538818359375,0.042572021484375
1760107086591961000,3.403961181640625,-0.9529876708984375,-0.354766845703125,0.044525146484375
1760107086602027000,3.414027099609375,-0.9623870849609375,-0.3540802001953125,0.0420684814453125
1760107086612093000,3.424093017578125,-0.9647674560546875,-0.35211181640625,0.0416412353515625
1760107086622159000,3.4341591796875,-0.9620819091796875,-0.3498687744140625,0.0405731201171875
1760107086632225000,3.44422509765625,-0.953338623046875,-0.34869384765625,0.0387725830078125
1760107086642290200,3.454290283203125,-0.942596435546875,-0.3525848388671875,0.034423828125
1760107086652356000,3.464356201171875,-0.932647705078125,-0.3592376708984375,0.03289794921875
1760107086662422000,3.474422119140625,-0.930267333984375,-0.3641357421875,0.0368804931640625
1760107086672488000,3.484488037109375,-0.9293365478515625,-0.3650665283203125,0.0392608642578125
1760107086682554000,3.49455419921875,-0.93621826171875,-0.3641510009765625,0.038970947265625
1760107086692620000,3.5046201171875,-0.94696044921875,-0.3609771728515625,0.0430755615234375
1760107086702686000,3.51468603515625,-0.9529571533203125,-0.356658935546875,0.047271728515625
1760107086712752000,3.524752197265625,-0.9567108154296875,-0.351837158203125,0.04974365234375
1760107086722818000,3.534818115234375,-0.9560546875,-0.3503265380859375,0.051025390625
1760107086732883000,3.544883056640625,-0.954681396484375,-0.351226806640625,0.053558349609375
1760107086742949000,3.55494921875,-0.95172119140625,-0.354095458984375,0.0547332763671875
1760107086753015000,3.56501513671875,-0.9464569091796875,-0.35479736328125,0.0537872314453125
1760107086763081000,3.5750810546875,-0.9449462890625,-0.3554229736328125,0.050201416015625
1760107086773147100,3.585147216796875,-0.9481964111328125,-0.3550567626953125,0.0487060546875
1760107086783213000,3.595213134765625,-0.94873046875,-0.35235595703125,0.0450897216796875
1760107086793279000,3.605279052734375,-0.9458160400390625,-0.35003662109375,0.0404052734375
1760107086803345000,3.615344970703125,-0.9369354248046875,-0.3491363525390625,0.04083251953125
1760107086813410000,3.62541015625,-0.9317169189453125,-0.3490753173828125,0.0454559326171875
1760107086823476000,3.63547607421875,-0.934783935546875,-0.3504486083984375,0.0509796142578125
1760107086833542100,3.645542236328125,-0.9401397705078125,-0.3481292724609375,0.052215576171875
1760107086843608000,3.655608154296875,-0.94140625,-0.3438873291015625,0.0530242919921875
1760107086853674000,3.665674072265625,-0.9364013671875,-0.343505859375,0.0503692626953125
1760107086863740000,3.675739990234375,-0.93243408203125,-0.346588134765625,0.046600341796875
1760107086873806000,3.68580615234375,-0.927154541015625,-0.3508148193359375,0.041717529296875
1760107086883872000,3.6958720703125,-0.9262847900390625,-0.35565185546875,0.0382232666015625
1760107086893938200,3.705938232421875,-0.9312744140625,-0.360382080078125,0.03668212890625
1760107086904003000,3.716003173828125,-0.9413604736328125,-0.36126708984375,0.03851318359375
1760107086914069000,3.726069091796875,-0.952117919921875,-0.355926513671875,0.0433502197265625
1760107086924135000,3.736135009765625,-0.95404052734375,-0.3497161865234375,0.0470733642578125
1760107086934201000,3.746201171875,-0.9532012939453125,-0.34832763671875,0.0474853515625
1760107086944267000,3.75626708984375,-0.944244384765625,-0.3516845703125,0.043914794921875
1760107086954333200,3.766333251953125,-0.9373931884765625,-0.3582763671875,0.0404510498046875
1760107086964399000,3.776399169921875,-0.9342041015625,-0.3617095947265625,0.038726806640625
1760107086974465000,3.786465087890625,-0.9332427978515625,-0.362213134765625,0.04095458984375
1760107086984530000,3.796530029296875,-0.9374542236328125,-0.3590240478515625,0.0471649169921875
1760107086994596000,3.80659619140625,-0.9423980712890625,-0.355712890625,0.0537872314453125
1760107087004662000,3.816662109375,-0.945770263671875,-0.351959228515625,0.05487060546875
1760107087014728200,3.826728271484375,-0.9452362060546875,-0.35064697265625,0.0515899658203125
1760107087024794000,3.836794189453125,-0.943450927734375,-0.3527374267578125,0.046478271484375
1760107087034860000,3.846860107421875,-0.9462738037109375,-0.3575897216796875,0.0439910888671875
1760107087044926000,3.856926025390625,-0.9518890380859375,-0.3573455810546875,0.0436553955078125
1760107087054992000,3.866991943359375,-0.954986572265625,-0.3527374267578125,0.0434417724609375
1760107087065058000,3.87705810546875,-0.9550628662109375,-0.3476409912109375,0.0473480224609375
1760107087075123000,3.887123046875,-0.955108642578125,-0.34735107421875,0.047149658203125
1760107087085189000,3.897189208984375,-0.9552764892578125,-0.351226806640625,0.04638671875
1760107087095255000,3.907255126953125,-0.9499969482421875,-0.3548431396484375,0.04461669921875
1760107087105321000,3.917321044921875,-0.9431610107421875,-0.355377197265625,0.041351318359375
1760107087115387000,3.927386962890625,-0.9368133544921875,-0.3566131591796875,0.043609619140625
1760107087125453600,3.93745361328125,-0.935455322265625,-0.3577117919921875,0.050689697265625
1760107087135519500,3.94751953125,-0.9349517822265625,-0.35516357421875,0.0554046630859375
1760107087145585400,3.95758544921875,-0.9386444091796875,-0.35247802734375,0.0550537109375
1760107087155650300,3.967650390625,-0.9470062255859375,-0.352752685546875,0.050994873046875
1760107087165716500,3.977716552734375,-0.955169677734375,-0.3549041748046875,0.0450439453125
1760107087175782400,3.987782470703125,-0.9563140869140625,-0.3558349609375,0.035186767578125
1760107087185848600,3.9978486328125,-0.9553375244140625,-0.3585357666015625,0.029296875
1760107087195914500,4.00791455078125,-0.948974609375,-0.358917236328125,0.03466796875
1760107087205980400,4.01798046875,-0.9395599365234375,-0.358062744140625,0.0461273193359375
1760107087216046300,4.02804638671875,-0.9321441650390625,-0.355194091796875,0.05633544921875
1760107087226112300,4.0381123046875,-0.9307098388671875,-0.35394287109375,0.062469482421875
1760107087236177400,4.048177490234375,-0.933807373046875,-0.3538360595703125,0.0645904541015625
1760107087246243600,4.05824365234375,-0.9375,-0.3543243408203125,0.0610809326171875
1760107087256309500,4.0683095703125,-0.9423370361328125,-0.3551177978515625,0.0572052001953125
1760107087266375400,4.07837548828125,-0.9449615478515625,-0.3546295166015625,0.0527801513671875
1760107087276441300,4.08844140625,-0.941497802734375,-0.3541107177734375,0.0469512939453125
1760107087286507300,4.09850732421875,-0.938018798828125,-0.355926513671875,0.043121337890625
1760107087296573400,4.108573486328125,-0.9399566650390625,-0.3581390380859375,0.04351806640625
1760107087306639400,4.118639404296875,-0.9431304931640625,-0.3570556640625,0.0478363037109375
1760107087316705500,4.12870556640625,-0.94622802734375,-0.345184326171875,0.0531005859375
1760107087326770400,4.1387705078125,-0.95855712890625,-0.340057373046875,0.0584869384765625
1760107087336836400,4.14883642578125,-0.971038818359375,-0.339752197265625,0.0590362548828125
1760107087346902300,4.15890234375,-0.9720611572265625,-0.337310791015625,0.05938720703125
1760107087356968400,4.168968505859375,-0.9627532958984375,-0.3392486572265625,0.0538177490234375
1760107087367034400,4.179034423828125,-0.9440460205078125,-0.346923828125,0.0477752685546875
1760107087377100500,4.1891005859375,-0.923736572265625,-0.3545074462890625,0.043426513671875
1760107087387166500,4.19916650390625,-0.9108428955078125,-0.3612213134765625,0.0367431640625
1760107087397232400,4.209232421875,-0.911163330078125,-0.36376953125,0.0372772216796875
1760107087407297300,4.21929736328125,-0.9234161376953125,-0.3614654541015625,0.0395050048828125
1760107087417363500,4.229363525390625,-0.938201904296875,-0.353057861328125,0.045257568359375
1760107087427429400,4.239429443359375,-0.9432830810546875,-0.3441314697265625,0.0496826171875
1760107087437495600,4.24949560546875,-0.9383697509765625,-0.342742919921875,0.0539093017578125
1760107087447561500,4.2595615234375,-0.9308624267578125,-0.3477630615234375,0.0582275390625
1760107087457627400,4.26962744140625,-0.9250335693359375,-0.3531036376953125,0.060211181640625
1760107087467693300,4.279693359375,-0.923309326171875,-0.3553466796875,0.0575408935546875
1760107087477759500,4.289759521484375,-0.93109130859375,-0.3571319580078125,0.054718017578125
1760107087487825400,4.299825439453125,-0.9396209716796875,-0.3561553955078125,0.0528717041015625
1760107087497890600,4.309890625,-0.9429168701171875,-0.353118896484375,0.052337646484375
1760107087507956500,4.31995654296875,-0.9420928955078125,-0.3512115478515625,0.053497314453125
1760107087518022400,4.3300224609375,-0.9381256103515625,-0.3538970947265625,0.0516815185546875
1760107087528088300,4.34008837890625,-0.9363861083984375,-0.35797119140625,0.048187255859375
1760107087538154200,4.350154296875,-0.93463134765625,-0.3590240478515625,0.0473785400390625
1760107087548220400,4.360220458984375,-0.9400787353515625,-0.358734130859375,0.044219970703125
1760107087558286300,4.370286376953125,-0.9473419189453125,-0.3590240478515625,0.042572021484375
1760107087568352500,4.3803525390625,-0.956878662109375,-0.3620147705078125,0.0399017333984375
1760107087578417400,4.39041748046875,-0.9664459228515625,-0.3651275634765625,0.038665771484375
1760107087588483300,4.4004833984375,-0.970001220703125,-0.3634796142578125,0.039825439453125
1760107087598549200,4.41054931640625,-0.966766357421875,-0.3612518310546875,0.0404052734375
1760107087608615400,4.420615478515625,-0.958953857421875,-0.3609161376953125,0.0420684814453125
1760107087618681300,4.430681396484375,-0.9511260986328125,-0.361358642578125,0.043548583984375
1760107087628747500,4.44074755859375,-0.9438629150390625,-0.3621978759765625,0.04241943359375
1760107087638813400,4.4508134765625,-0.9432830810546875,-0.3651275634765625,0.0378265380859375
1760107087648879600,4.460879638671875,-0.947296142578125,-0.366180419921875,0.038482666015625
1760107087658944300,4.4709443359375,-0.9530487060546875,-0.363037109375,0.0457611083984375
1760107087669010400,4.481010498046875,-0.9558563232421875,-0.358184814453125,0.0501861572265625
1760107087679076400,4.491076416015625,-0.9568634033203125,-0.353240966796875,0.0527801513671875
1760107087689142500,4.501142578125,-0.954925537109375,-0.3506011962890625,0.05255126953125
1760107087699208400,4.51120849609375,-0.952117919921875,-0.3494720458984375,0.0505523681640625
1760107087709274600,4.521274658203125,-0.9424285888671875,-0.3480072021484375,0.0482635498046875
1760107087719340300,4.53134033203125,-0.9305267333984375,-0.346588134765625,0.044525146484375
1760107087729406500,4.541406494140625,-0.921966552734375,-0.3485107421875,0.037933349609375
1760107087739472400,4.551472412109375,-0.92181396484375,-0.3534393310546875,0.0242767333984375
1760107087749537500,4.56153759765625,-0.9378509521484375,-0.3608551025390625,0.0049896240234375
1760107087759603500,4.571603515625,-0.9614105224609375,-0.3662567138671875,-0.0124664306640625
1760107087769669400,4.58166943359375,-0.9778900146484375,-0.3660430908203125,-0.0177001953125
1760107087779735300,4.5917353515625,-0.9824066162109375,-0.3654327392578125,-0.0102691650390625
1760107087789801500,4.601801513671875,-0.970794677734375,-0.3620758056640625,0.004302978515625
1760107087799867400,4.611867431640625,-0.950439453125,-0.3615264892578125,0.0240020751953125
1760107087809933300,4.621933349609375,-0.93487548828125,-0.3628387451171875,0.043914794921875
1760107087819999500,4.63199951171875,-0.926300048828125,-0.3608245849609375,0.0582122802734375
1760107087830064400,4.642064453125,-0.925537109375,-0.3584442138671875,0.061248779296875
1760107087840130300,4.65213037109375,-0.92413330078125,-0.359710693359375,0.0570068359375
1760107087850196500,4.662196533203125,-0.9183807373046875,-0.3639984130859375,0.0491180419921875
1760107087860262400,4.672262451171875,-0.9142303466796875,-0.3715362548828125,0.04339599609375
1760107087870328300,4.682328369140625,-0.915802001953125,-0.37591552734375,0.04193115234375
1760107087880394500,4.69239453125,-0.9210052490234375,-0.372039794921875,0.0470733642578125
1760107087890460400,4.70246044921875,-0.923431396484375,-0.3579864501953125,0.0534820556640625
1760107087900526600,4.712526611328125,-0.928497314453125,-0.345184326171875,0.0589447021484375
1760107087910591500,4.722591552734375,-0.93115234375,-0.3394622802734375,0.06280517578125
1760107087920657400,4.732657470703125,-0.9275970458984375,-0.3402252197265625,0.06085205078125
1760107087930723300,4.742723388671875,-0.9180908203125,-0.3433685302734375,0.0547637939453125
1760107087940789500,4.75278955078125,-0.91241455078125,-0.3468017578125,0.046295166015625
1760107087950855400,4.76285546875,-0.917083740234375,-0.351348876953125,0.04229736328125
1760107087960921600,4.772921630859375,-0.9311370849609375,-0.35107421875,0.0420684814453125
1760107087970987300,4.7829873046875,-0.9467620849609375,-0.3443756103515625,0.0464630126953125
1760107087981053400,4.793053466796875,-0.9561920166015625,-0.3374786376953125,0.052520751953125
1760107087991119400,4.803119384765625,-0.964080810546875,-0.3348236083984375,0.0582275390625
1760107088001184500,4.8131845703125,-0.9676971435546875,-0.33477783203125,0.058929443359375
1760107088011250400,4.82325048828125,-0.9640655517578125,-0.33837890625,0.05450439453125
1760107088021316600,4.833316650390625,-0.9586639404296875,-0.345184326171875,0.047515869140625
1760107088031382300,4.84338232421875,-0.955230712890625,-0.3531494140625,0.03936767578125
1760107088041448400,4.853448486328125,-0.9532012939453125,-0.3592987060546875,0.0296630859375
1760107088051514400,4.863514404296875,-0.94781494140625,-0.3655548095703125,0.0229034423828125
1760107088061580500,4.87358056640625,-0.9365692138671875,-0.371246337890625,0.02459716796875
1760107088071646500,4.883646484375,-0.92755126953125,-0.3758697509765625,0.0286865234375
1760107088081711600,4.893711669921875,-0.9261322021484375,-0.3806304931640625,0.0308380126953125
1760107088091777300,4.90377734375,-0.934539794921875,-0.380615234375,0.0338592529296875
1760107088101843500,4.913843505859375,-0.95458984375,-0.3745269775390625,0.0350341796875
1760107088111909400,4.923909423828125,-0.9746246337890625,-0.365753173828125,0.0396270751953125
1760107088121975300,4.933975341796875,-0.9857940673828125,-0.3585662841796875,0.041229248046875
1760107088132041500,4.94404150390625,-0.9835662841796875,-0.3541412353515625,0.0425567626953125
1760107088142107400,4.954107421875,-0.9708099365234375,-0.355560302734375,0.041473388671875
1760107088152173600,4.964173583984375,-0.9537200927734375,-0.356689453125,0.0427093505859375
1760107088162239200,4.9742392578125,-0.9380340576171875,-0.3555450439453125,0.043853759765625
1760107088172304400,4.984304443359375,-0.92877197265625,-0.351776123046875,0.045196533203125
1760107088182370300,4.994370361328125,-0.9244232177734375,-0.348480224609375,0.0524139404296875
1760107088192436500,5.0044365234375,-0.9223785400390625,-0.34521484375,0.0598602294921875
1760107088202502400,5.01450244140625,-0.9190521240234375,-0.343414306640625,0.0678863525390625
1760107088212568600,5.024568603515625,-0.916351318359375,-0.3405609130859375,0.0673675537109375
1760107088222634200,5.03463427734375,-0.9195404052734375,-0.341552734375,0.0648956298828125
1760107088232700400,5.044700439453125,-0.9294281005859375,-0.342559814453125,0.0654449462890625
1760107088242766300,5.054766357421875,-0.9417724609375,-0.343902587890625,0.0662994384765625
1760107088252831500,5.06483154296875,-0.9522857666015625,-0.3409881591796875,0.0656890869140625
1760107088262897400,5.0748974609375,-0.9595794677734375,-0.3394775390625,0.063323974609375
1760107088272963600,5.084963623046875,-0.9602813720703125,-0.342559814453125,0.0619354248046875
1760107088283029200,5.095029296875,-0.957366943359375,-0.3477630615234375,0.0560302734375
1760107088293095400,5.105095458984375,-0.951568603515625,-0.3559417724609375,0.0513916015625
1760107088303161300,5.115161376953125,-0.9466705322265625,-0.3634185791015625,0.04779052734375
1760107088313227500,5.1252275390625,-0.9403839111328125,-0.367095947265625,0.0485076904296875
1760107088323293400,5.13529345703125,-0.9372406005859375,-0.3676910400390625,0.052215576171875
1760107088333358600,5.145358642578125,-0.9395751953125,-0.3665924072265625,0.057952880859375
1760107088343424300,5.15542431640625,-0.945037841796875,-0.3609619140625,0.05682373046875
1760107088353490400,5.165490478515625,-0.9503326416015625,-0.3572235107421875,0.0509490966796875
1760107088363556400,5.175556396484375,-0.9543304443359375,-0.3575286865234375,0.04669189453125
1760107088373622500,5.18562255859375,-0.951629638671875,-0.3611602783203125,0.0412750244140625
1760107088383688400,5.1956884765625,-0.9415130615234375,-0.3641204833984375,0.038360595703125
1760107088393754400,5.20575439453125,-0.9288330078125,-0.3653564453125,0.0421905517578125
1760107088403820500,5.215820556640625,-0.9214324951171875,-0.364410400390625,0.047332763671875
1760107088413885400,5.225885498046875,-0.9225311279296875,-0.3621368408203125,0.0516204833984375
1760107088423951400,5.235951416015625,-0.9323272705078125,-0.3585357666015625,0.05389404296875
1760107088434017500,5.246017578125,-0.9412841796875,-0.353973388671875,0.055145263671875
1760107088444083500,5.25608349609375,-0.944671630859375,-0.35107421875,0.0539703369140625
1760107088454149400,5.2661494140625,-0.945343017578125,-0.3504180908203125,0.054351806640625
1760107088464215600,5.276215576171875,-0.9418182373046875,-0.3502044677734375,0.05450439453125
1760107088474281200,5.28628125,-0.9366455078125,-0.350555419921875,0.0527191162109375
1760107088484347400,5.296347412109375,-0.9327850341796875,-0.35040283203125,0.050933837890625
1760107088494413300,5.306413330078125,-0.940155029296875,-0.3531494140625,0.0494384765625
1760107088504478500,5.316478515625,-0.9530181884765625,-0.3545379638671875,0.0474853515625
1760107088514544400,5.32654443359375,-0.96240234375,-0.3526153564453125,0.04931640625
1760107088524610600,5.336610595703125,-0.961395263671875,-0.347747802734375,0.0540313720703125
1760107088534676200,5.34667626953125,-0.9538116455078125,-0.34735107421875,0.06036376953125
1760107088544742400,5.356742431640625,-0.944183349609375,-0.3502655029296875,0.063568115234375
1760107088554808300,5.366808349609375,-0.9365692138671875,-0.3548583984375,0.0588836669921875
1760107088564874500,5.37687451171875,-0.9317169189453125,-0.3574981689453125,0.0534210205078125
1760107088574940400,5.3869404296875,-0.930511474609375,-0.359100341796875,0.0467529296875
1760107088585005600,5.397005615234375,-0.9333038330078125,-0.36138916015625,0.0434722900390625
1760107088595071200,5.4070712890625,-0.9420166015625,-0.361572265625,0.0435333251953125
1760107088605137400,5.417137451171875,-0.9490814208984375,-0.3585357666015625,0.044403076171875
1760107088615203300,5.427203369140625,-0.950164794921875,-0.35516357421875,0.0487823486328125
1760107088625269500,5.43726953125,-0.941009521484375,-0.3551025390625,0.050140380859375
1760107088635335400,5.44733544921875,-0.92926025390625,-0.360595703125,0.0529632568359375
1760107088645401600,5.457401611328125,-0.927459716796875,-0.3676605224609375,0.0532073974609375
1760107088655467500,5.467467529296875,-0.9304962158203125,-0.3677825927734375,0.048370361328125
1760107088665532400,5.477532470703125,-0.941864013671875,-0.3678436279296875,0.04486083984375
1760107088675598300,5.487598388671875,-0.9573822021484375,-0.3660430908203125,0.0465087890625
1760107088685664500,5.49766455078125,-0.9687042236328125,-0.359710693359375,0.05279541015625
1760107088695730400,5.50773046875,-0.9795379638671875,-0.35272216796875,0.0542144775390625
1760107088705796600,5.517796630859375,-0.9813995361328125,-0.3465576171875,0.0520782470703125
1760107088715862500,5.527862548828125,-0.9718780517578125,-0.3454742431640625,0.045318603515625
1760107088725928200,5.53792822265625,-0.9526214599609375,-0.3502349853515625,0.0388641357421875
1760107088735994400,5.547994384765625,-0.9313507080078125,-0.3552093505859375,0.0402679443359375
1760107088746059500,5.5580595703125,-0.9127197265625,-0.3578643798828125,0.043914794921875
1760107088756125400,5.56812548828125,-0.905487060546875,-0.3573150634765625,0.050323486328125
1760107088766191400,5.57819140625,-0.9135894775390625,-0.3541412353515625,0.0599365234375
1760107088776257500,5.588257568359375,-0.9291534423828125,-0.350799560546875,0.0681304931640625
1760107088786323200,5.5983232421875,-0.9486236572265625,-0.3466033935546875,0.0690155029296875
1760107088796389400,5.608389404296875,-0.958343505859375,-0.340728759765625,0.0579833984375
1760107088806455300,5.618455322265625,-0.9532318115234375,-0.343536376953125,0.048309326171875
1760107088816521500,5.628521484375,-0.9422454833984375,-0.351409912109375,0.0413818359375
1760107088826587400,5.63858740234375,-0.9334259033203125,-0.359527587890625,0.03668212890625
1760107088836652500,5.648652587890625,-0.930999755859375,-0.361328125,0.0372314453125
1760107088846718200,5.65871826171875,-0.9310150146484375,-0.3614959716796875,0.0400848388671875
1760107088856784400,5.668784423828125,-0.9297332763671875,-0.360504150390625,0.0448760986328125
1760107088866850300,5.678850341796875,-0.9261016845703125,-0.3624725341796875,0.0479583740234375
1760107088876916500,5.68891650390625,-0.9257049560546875,-0.3650970458984375,0.0491485595703125
1760107088886982400,5.698982421875,-0.93011474609375,-0.368072509765625,0.04718017578125
1760107088897048600,5.709048583984375,-0.93780517578125,-0.36834716796875,0.0471954345703125
1760107088907114500,5.719114501953125,-0.952178955078125,-0.3636474609375,0.04498291015625
1760107088917179400,5.729179443359375,-0.9605560302734375,-0.359649658203125,0.0481109619140625
1760107088927245300,5.739245361328125,-0.962646484375,-0.3549041748046875,0.0553741455078125
1760107088937311500,5.7493115234375,-0.9609527587890625,-0.353179931640625,0.058441162109375
1760107088947377400,5.75937744140625,-0.9572906494140625,-0.353912353515625,0.0564727783203125
1760107088957443600,5.769443603515625,-0.9527435302734375,-0.35662841796875,0.0487823486328125
1760107088967509500,5.779509521484375,-0.946990966796875,-0.3596954345703125,0.04058837890625
1760107088977575400,5.789575439453125,-0.9423675537109375,-0.3625640869140625,0.0365447998046875
1760107088987641300,5.799641357421875,-0.9387359619140625,-0.3628997802734375,0.040771484375
1760107088997706500,5.80970654296875,-0.9353179931640625,-0.36151123046875,0.0489959716796875
1760107089007772400,5.8197724609375,-0.9337005615234375,-0.35986328125,0.05279541015625
1760107089017838600,5.829838623046875,-0.93475341796875,-0.3590545654296875,0.0551605224609375
1760107089027904500,5.839904541015625,-0.9373321533203125,-0.3592376708984375,0.050994873046875
1760107089037970400,5.849970458984375,-0.939208984375,-0.3604736328125,0.0460357666015625
1760107089048036400,5.860036376953125,-0.93682861328125,-0.35968017578125,0.045501708984375
1760107089058102300,5.870102294921875,-0.9321136474609375,-0.3593597412109375,0.0512237548828125
1760107089068168400,5.88016845703125,-0.928436279296875,-0.357391357421875,0.0561370849609375
1760107089078233600,5.890233642578125,-0.9253387451171875,-0.3571929931640625,0.0562286376953125
1760107089088299500,5.900299560546875,-0.9268798828125,-0.3587493896484375,0.054046630859375
1760107089098365200,5.910365234375,-0.93341064453125,-0.3607635498046875,0.0517578125
1760107089108431400,5.920431396484375,-0.9395904541015625,-0.3618621826171875,0.049224853515625
1760107089118497800,5.930497802734375,-0.942901611328125,-0.36199951171875,0.0472869873046875
1760107089128564000,5.94056396484375,-0.9478759765625,-0.3614654541015625,0.0468597412109375
1760107089138629600,5.950629638671875,-0.9533843994140625,-0.3585052490234375,0.0467529296875
1760107089148695800,5.96069580078125,-0.9569854736328125,-0.35400390625,0.044189453125
1760107089158760700,5.9707607421875,-0.9638671875,-0.3521575927734375,0.0444488525390625
1760107089168827000,5.980826904296875,-0.9688720703125,-0.35089111328125,0.044464111328125
1760107089178892800,5.990892822265625,-0.9657440185546875,-0.350982666015625,0.0457000732421875
1760107089188959000,6.000958984375,-0.9554595947265625,-0.354156494140625,0.044769287109375
1760107089199024600,6.011024658203125,-0.9434814453125,-0.3593597412109375,0.0436553955078125
1760107089209090800,6.0210908203125,-0.930389404296875,-0.3640289306640625,0.0422821044921875
1760107089219156700,6.03115673828125,-0.9236602783203125,-0.3667449951171875,0.045745849609375
1760107089229222700,6.04122265625,-0.9239654541015625,-0.3675384521484375,0.0453643798828125
1760107089239287800,6.051287841796875,-0.92864990234375,-0.3678131103515625,0.0398101806640625
1760107089249354000,6.06135400390625,-0.9361572265625,-0.3642120361328125,0.03570556640625
1760107089259419600,6.071419677734375,-0.939361572265625,-0.3587188720703125,0.0347747802734375
1760107089269485800,6.08148583984375,-0.9383087158203125,-0.354583740234375,0.035186767578125
1760107089279551700,6.0915517578125,-0.9337005615234375,-0.3534698486328125,0.03790283203125
1760107089289617700,6.10161767578125,-0.9243927001953125,-0.3530120849609375,0.03973388671875
1760107089299683800,6.111683837890625,-0.916229248046875,-0.3524017333984375,0.045501708984375
1760107089309749800,6.121749755859375,-0.91162109375,-0.35272216796875,0.054168701171875
1760107089319816000,6.13181591796875,-0.908966064453125,-0.35198974609375,0.0599212646484375
1760107089329880800,6.141880859375,-0.9144134521484375,-0.351898193359375,0.0616912841796875
1760107089339946800,6.15194677734375,-0.92706298828125,-0.3509521484375,0.0599517822265625
1760107089350012700,6.1620126953125,-0.940399169921875,-0.3505096435546875,0.0579376220703125
1760107089360078800,6.172078857421875,-0.9539642333984375,-0.351348876953125,0.0570220947265625
1760107089370144800,6.182144775390625,-0.9597930908203125,-0.3514556884765625,0.0553131103515625
1760107089380211000,6.1922109375,-0.958740234375,-0.35101318359375,0.0527191162109375
1760107089390276600,6.202276611328125,-0.9544830322265625,-0.352386474609375,0.04888916015625
1760107089400342800,6.2123427734375,-0.9568328857421875,-0.356292724609375,0.0462799072265625
1760107089410407700,6.22240771484375,-0.96368408203125,-0.3593597412109375,0.044403076171875
1760107089420473900,6.232473876953125,-0.965087890625,-0.35858154296875,0.0406646728515625
1760107089430539800,6.242539794921875,-0.96142578125,-0.3597412109375,0.0376434326171875
1760107089440606000,6.25260595703125,-0.9502410888671875,-0.3628387451171875,0.0408935546875
1760107089450671600,6.262671630859375,-0.9377899169921875,-0.3655548095703125,0.04461669921875
1760107089460737800,6.27273779296875,-0.9253692626953125,-0.3666534423828125,0.0464019775390625
1760107089470803700,6.2828037109375,-0.926025390625,-0.3635101318359375,0.04949951171875
1760107089480870000,6.292869873046875,-0.934234619140625,-0.357879638671875,0.049407958984375
1760107089490934800,6.302934814453125,-0.9457855224609375,-0.35186767578125,0.0451507568359375
1760107089501001000,6.3130009765625,-0.955963134765625,-0.3502960205078125,0.0441741943359375
1760107089511066600,6.323066650390625,-0.959808349609375,-0.3495025634765625,0.045379638671875
1760107089521132800,6.3331328125,-0.9556732177734375,-0.346893310546875,0.04510498046875
1760107089531198700,6.34319873046875,-0.9461517333984375,-0.3470458984375,0.044525146484375
1760107089541265000,6.353264892578125,-0.9367828369140625,-0.34942626953125,0.0433349609375
1760107089551330800,6.363330810546875,-0.93316650390625,-0.3509979248046875,0.0428314208984375
1760107089561396700,6.373396728515625,-0.93267822265625,-0.350006103515625,0.0420989990234375
1760107089571461600,6.383461669921875,-0.9363555908203125,-0.3495941162109375,0.0452423095703125
1760107089581527800,6.39352783203125,-0.9414215087890625,-0.34661865234375,0.0473480224609375
1760107089591593700,6.40359375,-0.94952392578125,-0.342987060546875,0.0478668212890625
1760107089601659600,6.41365966796875,-0.955047607421875,-0.341522216796875,0.042999267578125
1760107089611725800,6.423725830078125,-0.9563140869140625,-0.3444366455078125,0.036407470703125
1760107089621791700,6.433791748046875,-0.9556732177734375,-0.349700927734375,0.0310516357421875
1760107089631858000,6.44385791015625,-0.953643798828125,-0.3537445068359375,0.0275115966796875
1760107089641923800,6.453923828125,-0.9515228271484375,-0.35833740234375,0.0237274169921875
1760107089651988700,6.46398876953125,-0.9485626220703125,-0.35760498046875,0.0222625732421875
1760107089662054700,6.4740546875,-0.944427490234375,-0.3577880859375,0.02423095703125
1760107089672120800,6.484120849609375,-0.9427032470703125,-0.3566741943359375,0.032440185546875
1760107089682186800,6.494186767578125,-0.940460205078125,-0.356231689453125,0.03863525390625
1760107089692253000,6.5042529296875,-0.943084716796875,-0.352569580078125,0.0417633056640625
1760107089702318600,6.514318603515625,-0.94708251953125,-0.3459625244140625,0.0394439697265625
1760107089712384800,6.524384765625,-0.9517822265625,-0.34381103515625,0.0347747802734375
1760107089722450700,6.53445068359375,-0.9548797607421875,-0.34716796875,0.0307464599609375
1760107089732515800,6.544515869140625,-0.9564666748046875,-0.348907470703125,0.032196044921875
1760107089742581800,6.554581787109375,-0.95135498046875,-0.346832275390625,0.0370635986328125
1760107089752648000,6.56464794921875,-0.946990966796875,-0.3447265625,0.0464019775390625
1760107089762713600,6.574713623046875,-0.9475555419921875,-0.3443756103515625,0.0516510009765625
1760107089772779800,6.58477978515625,-0.9506683349609375,-0.3446807861328125,0.0510711669921875
1760107089782845700,6.594845703125,-0.9558868408203125,-0.345428466796875,0.045623779296875
1760107089792912000,6.604911865234375,-0.9601898193359375,-0.346099853515625,0.0386962890625
1760107089802977800,6.614977783203125,-0.96087646484375,-0.3476409912109375,0.0328369140625
1760107089813043000,6.62504296875,-0.9575042724609375,-0.34930419921875,0.0341339111328125
1760107089823108600,6.635108642578125,-0.95465087890625,-0.3494873046875,0.048065185546875
1760107089833174800,6.6451748046875,-0.9512481689453125,-0.3447113037109375,0.0639190673828125
1760107089843240700,6.65524072265625,-0.946746826171875,-0.3388671875,0.0715484619140625
1760107089853307000,6.665306884765625,-0.937530517578125,-0.338165283203125,0.0721282958984375
1760107089863372800,6.675372802734375,-0.92462158203125,-0.3435821533203125,0.064453125
1760107089873438700,6.685438720703125,-0.9160003662109375,-0.3509674072265625,0.056243896484375
1760107089883505000,6.6955048828125,-0.9150390625,-0.358367919921875,0.0477752685546875
1760107089893569800,6.70556982421875,-0.92279052734375,-0.3625030517578125,0.044464111328125
1760107089903635700,6.7156357421875,-0.9432220458984375,-0.3588409423828125,0.0449066162109375
1760107089913702000,6.725701904296875,-0.9633636474609375,-0.3493194580078125,0.049041748046875
1760107089923767800,6.735767822265625,-0.9766387939453125,-0.3408050537109375,0.051727294921875
1760107089933833700,6.745833740234375,-0.9786529541015625,-0.3380584716796875,0.055419921875
1760107089943900000,6.75589990234375,-0.974151611328125,-0.3418731689453125,0.0558929443359375
1760107089953965800,6.7659658203125,-0.962890625,-0.34954833984375,0.049652099609375
1760107089964031700,6.77603173828125,-0.9501800537109375,-0.3543243408203125,0.045440673828125
1760107089974097000,6.786096923828125,-0.941253662109375,-0.358917236328125,0.042999267578125
1760107089984162800,6.796162841796875,-0.9384307861328125,-0.3599090576171875,0.044586181640625
1760107089994228700,6.806228759765625,-0.9373626708984375,-0.3592681884765625,0.043609619140625
1760107090004295000,6.816294921875,-0.942840576171875,-0.35845947265625,0.0421905517578125
1760107090014360800,6.82636083984375,-0.953094482421875,-0.3573760986328125,0.0387420654296875
1760107090024426800,6.8364267578125,-0.96014404296875,-0.3551177978515625,0.03662109375
1760107090034492700,6.84649267578125,-0.955902099609375,-0.3545989990234375,0.0361785888671875
1760107090044558800,6.856558837890625,-0.9443817138671875,-0.3535919189453125,0.0369720458984375
1760107090054623700,6.866623779296875,-0.9326629638671875,-0.3560638427734375,0.0422210693359375
1760107090064690000,6.87668994140625,-0.926910400390625,-0.3571929931640625,0.050323486328125
1760107090074755600,6.886755615234375,-0.9252166748046875,-0.354766845703125,0.0515289306640625
1760107090084821800,6.89682177734375,-0.9251708984375,-0.35211181640625,0.0509796142578125
1760107090094887700,6.9068876953125,-0.928741455078125,-0.3530120849609375,0.0476531982421875
1760107090104953900,6.916953857421875,-0.93841552734375,-0.35662841796875,0.045196533203125
1760107090115019800,6.927019775390625,-0.94775390625,-0.3575897216796875,0.0488433837890625
1760107090125085200,6.937085205078125,-0.9544677734375,-0.3515167236328125,0.0517425537109375
1760107090135150000,6.947150146484375,-0.9502105712890625,-0.34381103515625,0.0575714111328125
1760107090145216000,6.957216064453125,-0.9410247802734375,-0.3391876220703125,0.062591552734375
1760107090155282000,6.967281982421875,-0.9332275390625,-0.3389434814453125,0.065032958984375
1760107090165348000,6.97734814453125,-0.9264068603515625,-0.3415374755859375,0.0623321533203125
1760107090175414000,6.9874140625,-0.9207916259765625,-0.345672607421875,0.055450439453125
1760107090185480200,6.997480224609375,-0.9187164306640625,-0.35107421875,0.0468902587890625
1760107090195546000,7.007546142578125,-0.9256439208984375,-0.3559417724609375,0.0379180908203125
1760107090205612000,7.017612060546875,-0.9361724853515625,-0.3578338623046875,0.0335235595703125
1760107090215677000,7.027677001953125,-0.9449615478515625,-0.355743408203125,0.038238525390625
1760107090225743000,7.0377431640625,-0.9421539306640625,-0.35113525390625,0.0428619384765625
1760107090235809000,7.04780908203125,-0.9350738525390625,-0.348907470703125,0.04443359375
1760107090245875200,7.057875244140625,-0.928070068359375,-0.35198974609375,0.043060302734375
1760107090255941000,7.067941162109375,-0.9222869873046875,-0.3583984375,0.033538818359375
1760107090266007000,7.078007080078125,-0.9228057861328125,-0.3657379150390625,0.0231170654296875
1760107090276073000,7.088072998046875,-0.931060791015625,-0.3714752197265625,0.017059326171875
1760107090286139100,7.09813916015625,-0.9403533935546875,-0.370574951171875,0.0191192626953125
1760107090296204000,7.1082041015625,-0.9502410888671875,-0.362823486328125,0.02850341796875
1760107090306270200,7.118270263671875,-0.9578094482421875,-0.35284423828125,0.03875732421875
1760107090316336000,7.128336181640625,-0.959747314453125,-0.3468170166015625,0.0472869873046875
1760107090326402000,7.138402099609375,-0.9560089111328125,-0.349151611328125,0.0503692626953125
1760107090336468000,7.148468017578125,-0.944122314453125,-0.350677490234375,0.0490570068359375
1760107090346534000,7.158533935546875,-0.929107666015625,-0.3536834716796875,0.04583740234375
1760107090356600000,7.16860009765625,-0.9211578369140625,-0.35418701171875,0.0450439453125
1760107090366666000,7.178666015625,-0.9302825927734375,-0.3536834716796875,0.049072265625
1760107090376731000,7.18873095703125,-0.963531494140625,-0.3484649658203125,0.0540771484375
1760107090386797000,7.198797119140625,-0.994110107421875,-0.3356475830078125,0.0536651611328125
1760107090396863000,7.208863037109375,-1.008331298828125,-0.3248443603515625,0.0518035888671875
1760107090406929000,7.218928955078125,-1.0005340576171875,-0.3275604248046875,0.05230712890625
1760107090416995000,7.2289951171875,-0.9741363525390625,-0.33746337890625,0.059600830078125
1760107090427061000,7.23906103515625,-0.9395751953125,-0.3493804931640625,0.06549072265625
1760107090437127200,7.249127197265625,-0.9113616943359375,-0.35595703125,0.0651397705078125
1760107090447193000,7.259193115234375,-0.9000701904296875,-0.3592071533203125,0.061767578125
1760107090457258000,7.269258056640625,-0.9122314453125,-0.36236572265625,0.058074951171875
1760107090467324000,7.279323974609375,-0.9373321533203125,-0.3607330322265625,0.0550384521484375
1760107090477390000,7.28939013671875,-0.96343994140625,-0.353240966796875,0.0606231689453125
1760107090487456000,7.2994560546875,-0.9734344482421875,-0.3402862548828125,0.0695648193359375
1760107090497522200,7.309522216796875,-0.966583251953125,-0.331298828125,0.077239990234375
1760107090507588000,7.319588134765625,-0.95233154296875,-0.3328704833984375,0.08013916015625
1760107090517654000,7.329654052734375,-0.9367523193359375,-0.34423828125,0.0734100341796875
1760107090527720000,7.339719970703125,-0.9264373779296875,-0.35516357421875,0.059844970703125
1760107090537785000,7.34978515625,-0.9212799072265625,-0.3614501953125,0.0502166748046875
1760107090547851000,7.35985107421875,-0.924102783203125,-0.363067626953125,0.049407958984375
1760107090557917200,7.369917236328125,-0.93450927734375,-0.3562774658203125,0.0552520751953125
1760107090567983000,7.379983154296875,-0.9528350830078125,-0.34521484375,0.0611724853515625
1760107090578049000,7.390049072265625,-0.9759674072265625,-0.335968017578125,0.0663909912109375
1760107090588115000,7.400114990234375,-0.9985198974609375,-0.3295135498046875,0.07135009765625
1760107090598181000,7.41018115234375,-1.00604248046875,-0.324920654296875,0.0694427490234375
1760107090608247000,7.4202470703125,-0.9901885986328125,-0.3227691650390625,0.0639495849609375
1760107090618312200,7.430312255859375,-0.9573974609375,-0.3289642333984375,0.0566558837890625
1760107090628378000,7.440378173828125,-0.926116943359375,-0.3426666259765625,0.052154541015625
1760107090638444000,7.450444091796875,-0.90631103515625,-0.3548583984375,0.046722412109375
1760107090648510000,7.460510009765625,-0.9019927978515625,-0.36065673828125,0.03857421875
1760107090658576100,7.470576171875,-0.909576416015625,-0.360321044921875,0.028411865234375
1760107090668642000,7.48064208984375,-0.9249114990234375,-0.35986328125,0.0271453857421875
1760107090678708000,7.4907080078125,-0.93878173828125,-0.357879638671875,0.031036376953125
1760107090688774100,7.500774169921875,-0.94927978515625,-0.35406494140625,0.0355987548828125
1760107090698839000,7.510839111328125,-0.957977294921875,-0.350341796875,0.03594970703125
1760107090708905000,7.520905029296875,-0.9578094482421875,-0.347015380859375,0.0332794189453125
1760107090718971100,7.53097119140625,-0.9486236572265625,-0.34600830078125,0.03363037109375
1760107090729037000,7.541037109375,-0.932159423828125,-0.34857177734375,0.0372772216796875
1760107090739103000,7.55110302734375,-0.9215850830078125,-0.35302734375,0.04205322265625
1760107090749169200,7.561169189453125,-0.9196929931640625,-0.3534088134765625,0.045135498046875
1760107090759235000,7.571235107421875,-0.9230194091796875,-0.3505401611328125,0.0445404052734375
1760107090769301000,7.581301025390625,-0.93310546875,-0.3446502685546875,0.041717529296875
1760107090779366100,7.5913662109375,-0.9464569091796875,-0.34246826171875,0.0400543212890625
1760107090789432000,7.60143212890625,-0.9627227783203125,-0.338958740234375,0.0442352294921875
1760107090799498000,7.611498046875,-0.9729156494140625,-0.3319244384765625,0.0469818115234375
1760107090809564200,7.621564208984375,-0.9736785888671875,-0.3251190185546875,0.0471343994140625
1760107090819630000,7.631630126953125,-0.9674224853515625,-0.324005126953125,0.047210693359375
1760107090829696000,7.641696044921875,-0.9586029052734375,-0.328826904296875,0.0439453125
1760107090839762000,7.651761962890625,-0.94921875,-0.33575439453125,0.040008544921875
1760107090849828000,7.661828125,-0.9347686767578125,-0.3427581787109375,0.0339813232421875
1760107090859893000,7.67189306640625,-0.9235992431640625,-0.3489837646484375,0.029571533203125
1760107090869959200,7.681959228515625,-0.9189910888671875,-0.3541717529296875,0.0281524658203125
1760107090880025000,7.692025146484375,-0.91943359375,-0.3586883544921875,0.0252227783203125
1760107090890091000,7.702091064453125,-0.9258880615234375,-0.3613128662109375,0.024444580078125
1760107090900157000,7.712156982421875,-0.93511962890625,-0.360992431640625,0.0235137939453125
1760107090910223000,7.72222314453125,-0.9472198486328125,-0.3564300537109375,0.0248565673828125
1760107090920289000,7.7322890625,-0.95477294921875,-0.3529052734375,0.0236663818359375
1760107090930355200,7.742355224609375,-0.9564971923828125,-0.3540191650390625,0.027740478515625
1760107090940420000,7.752420166015625,-0.9534149169921875,-0.357086181640625,0.03411865234375
1760107090950486000,7.762486083984375,-0.9481048583984375,-0.3580322265625,0.0381011962890625
1760107090960552000,7.772552001953125,-0.946197509765625,-0.3580322265625,0.039642333984375
1760107090970618000,7.7826181640625,-0.947784423828125,-0.359954833984375,0.0423736572265625
1760107090980684000,7.79268408203125,-0.950897216796875,-0.3611602783203125,0.043304443359375
1760107090990750000,7.80275,-0.95501708984375,-0.36053466796875,0.0402069091796875
1760107091000816000,7.812816162109375,-0.9622955322265625,-0.360595703125,0.0352783203125
1760107091010882000,7.822882080078125,-0.9688262939453125,-0.3583984375,0.03192138671875
1760107091020947000,7.832947021484375,-0.96649169921875,-0.3555145263671875,0.0304718017578125
1760107091031013000,7.84301318359375,-0.955902099609375,-0.354888916015625,0.033233642578125
1760107091041079000,7.8530791015625,-0.9421234130859375,-0.3565826416015625,0.0424652099609375
1760107091051145000,7.86314501953125,-0.9326324462890625,-0.3560333251953125,0.04949951171875
1760107091061211100,7.873211181640625,-0.9362030029296875,-0.3526153564453125,0.0518646240234375
1760107091071277000,7.883277099609375,-0.9451446533203125,-0.34808349609375,0.049530029296875
1760107091081343000,7.893343017578125,-0.9559478759765625,-0.3460845947265625,0.0418548583984375
1760107091091408100,7.903408203125,-0.9600982666015625,-0.350738525390625,0.0417938232421875
1760107091101474000,7.91347412109375,-0.9556427001953125,-0.3521575927734375,0.0484466552734375
1760107091111540000,7.9235400390625,-0.950439453125,-0.350799560546875,0.053741455078125
1760107091121606400,7.9336064453125,-0.9484405517578125,-0.3469390869140625,0.058349609375
1760107091131672300,7.94367236328125,-0.9517669677734375,-0.3448638916015625,0.0575103759765625
1760107091141738500,7.953738525390625,-0.954864501953125,-0.342071533203125,0.0518341064453125
1760107091151804400,7.963804443359375,-0.9595947265625,-0.34283447265625,0.0495452880859375
1760107091161870600,7.97387060546875,-0.9632415771484375,-0.3560638427734375,0.0529327392578125
1760107091171935200,7.983935302734375,-0.9477691650390625,-0.35577392578125,0.054412841796875
1760107091182001400,7.99400146484375,-0.929901123046875,-0.3519744873046875,0.0493927001953125
1760107091192067300,8.0040673828125,-0.915435791015625,-0.3570098876953125,0.0466156005859375
1760107091202133500,8.014133544921876,-0.9140167236328125,-0.360992431640625,0.048309326171875
1760107091212199400,8.024199462890625,-0.9323272705078125,-0.359710693359375,0.043792724609375
1760107091222265600,8.034265625,-0.9547119140625,-0.35504150390625,0.03656005859375
1760107091232331500,8.04433154296875,-0.9705352783203125,-0.3484344482421875,0.0283203125
1760107091242397200,8.054397216796875,-0.9688262939453125,-0.3459625244140625,0.02471923828125
1760107091252462300,8.06446240234375,-0.95428466796875,-0.3507080078125,0.02740478515625
1760107091262528500,8.074528564453125,-0.9344940185546875,-0.355133056640625,0.032928466796875
1760107091272594400,8.084594482421876,-0.9194183349609375,-0.3570098876953125,0.037261962890625
1760107091282660600,8.09466064453125,-0.9144287109375,-0.3560943603515625,0.036651611328125
1760107091292726500,8.1047265625,-0.9186248779296875,-0.35479736328125,0.03289794921875
1760107091302792200,8.114792236328125,-0.920440673828125,-0.35308837890625,0.02667236328125
1760107091312858400,8.1248583984375,-0.9225616455078125,-0.3541107177734375,0.025360107421875
1760107091322924300,8.13492431640625,-0.928009033203125,-0.35821533203125,0.0313262939453125
1760107091332989400,8.144989501953125,-0.9404296875,-0.3572845458984375,0.039581298828125
1760107091343055400,8.155055419921876,-0.9548492431640625,-0.34881591796875,0.039886474609375
1760107091353121500,8.16512158203125,-0.9677734375,-0.3412017822265625,0.0339813232421875
1760107091363187200,8.175187255859376,-0.970947265625,-0.3412322998046875,0.0256805419921875
1760107091373253400,8.18525341796875,-0.9636688232421875,-0.3484344482421875,0.0180816650390625
1760107091383319300,8.1953193359375,-0.9465484619140625,-0.3599090576171875,0.01123046875
1760107091393385500,8.205385498046875,-0.9204864501953125,-0.3690338134765625,0.0111083984375
1760107091403451400,8.215451416015625,-0.8954925537109375,-0.370574951171875,0.0206298828125
1760107091413516500,8.2255166015625,-0.8839569091796875,-0.3672637939453125,0.036163330078125
1760107091423582200,8.235582275390625,-0.888214111328125,-0.3600311279296875,0.051422119140625
1760107091433648400,8.2456484375,-0.89971923828125,-0.3478240966796875,0.0593719482421875
1760107091443714300,8.25571435546875,-0.911224365234375,-0.3389129638671875,0.062164306640625
1760107091453780500,8.265780517578126,-0.93121337890625,-0.3355865478515625,0.0627288818359375
1760107091463846400,8.275846435546875,-0.9592437744140625,-0.3420867919921875,0.0589141845703125
1760107091473912600,8.28591259765625,-0.9732513427734375,-0.345245361328125,0.0511932373046875
1760107091483978500,8.295978515625,-0.96478271484375,-0.338775634765625,0.044097900390625
1760107091494043400,8.30604345703125,-0.9484100341796875,-0.3411712646484375,0.0489349365234375
1760107091504109300,8.316109375,-0.9310150146484375,-0.3476715087890625,0.06298828125
1760107091514175500,8.326175537109375,-0.9259796142578125,-0.3469696044921875,0.0702056884765625
1760107091524241400,8.336241455078126,-0.93060302734375,-0.3425140380859375,0.0681610107421875
1760107091534307600,8.3463076171875,-0.94525146484375,-0.340850830078125,0.0629425048828125
1760107091544373500,8.35637353515625,-0.960723876953125,-0.3451690673828125,0.0596160888671875
1760107091554439400,8.366439453125,-0.9736328125,-0.3509979248046875,0.0581817626953125
1760107091564505300,8.37650537109375,-0.9804534912109375,-0.351776123046875,0.0529022216796875
1760107091574570500,8.386570556640624,-0.982452392578125,-0.3513946533203125,0.0469818115234375
1760107091584636400,8.396636474609375,-0.9794464111328125,-0.3527069091796875,0.0440216064453125
1760107091594702600,8.40670263671875,-0.97906494140625,-0.35552978515625,0.04486083984375
1760107091604768500,8.4167685546875,-0.9753875732421875,-0.354705810546875,0.0460205078125
1760107091614834400,8.42683447265625,-0.9666290283203125,-0.3528289794921875,0.041961669921875
1760107091624900400,8.436900390625,-0.9596710205078125,-0.355560302734375,0.0360870361328125
1760107091634966300,8.44696630859375,-0.9559173583984375,-0.3610992431640625,0.02593994140625
1760107091645031400,8.457031494140624,-0.9569091796875,-0.36663818359375,0.018890380859375
1760107091655097600,8.46709765625,-0.9572906494140625,-0.3657684326171875,0.0124053955078125
1760107091665163500,8.47716357421875,-0.9571685791015625,-0.360198974609375,0.00775146484375
1760107091675229200,8.487229248046875,-0.9576263427734375,-0.355987548828125,0.0077362060546875
1760107091685295400,8.49729541015625,-0.9514312744140625,-0.353607177734375,0.0106353759765625
1760107091695361300,8.507361328125,-0.940582275390625,-0.351531982421875,0.012969970703125
1760107091705427500,8.517427490234375,-0.926727294921875,-0.3526153564453125,0.012542724609375
1760107091715493400,8.527493408203124,-0.9173583984375,-0.35443115234375,0.0145263671875
1760107091725558500,8.53755859375,-0.9130859375,-0.3538818359375,0.0181427001953125
1760107091735624200,8.547624267578126,-0.9105224609375,-0.3521270751953125,0.0182952880859375
1760107091745690400,8.5576904296875,-0.9143524169921875,-0.3480224609375,0.0152130126953125
1760107091755756300,8.56775634765625,-0.9212188720703125,-0.3472900390625,0.016571044921875
1760107091765822500,8.577822509765625,-0.926849365234375,-0.3488311767578125,0.0228729248046875
1760107091775888400,8.587888427734375,-0.93292236328125,-0.3455810546875,0.026947021484375
1760107091785954600,8.59795458984375,-0.9374542236328125,-0.3423614501953125,0.029815673828125
1760107091796020500,8.6080205078125,-0.94940185546875,-0.3411102294921875,0.03143310546875
1760107091806085400,8.61808544921875,-0.96429443359375,-0.33905029296875,0.0363311767578125
1760107091816151300,8.6281513671875,-0.9720611572265625,-0.3369598388671875,0.0417022705078125
1760107091826217500,8.638217529296876,-0.971221923828125,-0.3370361328125,0.0480499267578125
1760107091836283400,8.648283447265625,-0.966033935546875,-0.3363800048828125,0.0539093017578125
1760107091846349600,8.658349609375,-0.960205078125,-0.3388671875,0.0559234619140625
1760107091856415500,8.66841552734375,-0.9505767822265625,-0.34173583984375,0.0508880615234375
1760107091866481400,8.6784814453125,-0.9398956298828125,-0.3480682373046875,0.0421905517578125
1760107091876547300,8.68854736328125,-0.933319091796875,-0.353118896484375,0.032928466796875
1760107091886612500,8.698612548828125,-0.9329071044921875,-0.3585968017578125,0.0231781005859375
1760107091896678400,8.708678466796876,-0.9356689453125,-0.3607330322265625,0.018707275390625
1760107091906744600,8.71874462890625,-0.9402618408203125,-0.359527587890625,0.0201873779296875
1760107091916810500,8.728810546875,-0.9425048828125,-0.3555755615234375,0.029571533203125
1760107091926876400,8.73887646484375,-0.9413909912109375,-0.35009765625,0.04095458984375
1760107091936942300,8.7489423828125,-0.943450927734375,-0.343536376953125,0.0516357421875
1760107091947008300,8.75900830078125,-0.947723388671875,-0.3401031494140625,0.054840087890625
1760107091957073400,8.769073486328125,-0.9518280029296875,-0.3410797119140625,0.05010986328125
1760107091967139600,8.7791396484375,-0.95391845703125,-0.3447265625,0.0434417724609375
1760107091977205500,8.78920556640625,-0.9496917724609375,-0.3489227294921875,0.036224365234375
1760107091987271400,8.799271484375,-0.9461669921875,-0.3536529541015625,0.0346527099609375
1760107091997337300,8.80933740234375,-0.9474945068359375,-0.354736328125,0.0382537841796875
1760107092007403300,8.8194033203125,-0.9492645263671875,-0.35101318359375,0.041778564453125
1760107092017469400,8.829469482421874,-0.94989013671875,-0.34521484375,0.044281005859375
1760107092027535400,8.839535400390625,-0.950897216796875,-0.339385986328125,0.0478057861328125
1760107092037600500,8.8496005859375,-0.9576873779296875,-0.3349609375,0.0487060546875
1760107092047666400,8.85966650390625,-0.9627532958984375,-0.336639404296875,0.0455780029296875
1760107092057732400,8.869732421875,-0.9640960693359375,-0.3412322998046875,0.0390167236328125
1760107092067798300,8.87979833984375,-0.9564056396484375,-0.3453521728515625,0.03289794921875
1760107092077864400,8.889864501953125,-0.9438323974609375,-0.350555419921875,0.029876708984375
1760107092087930400,8.899930419921875,-0.931549072265625,-0.3571319580078125,0.026275634765625
1760107092097996500,8.90999658203125,-0.920928955078125,-0.3605194091796875,0.0250396728515625
1760107092108062500,8.9200625,-0.9132232666015625,-0.3607330322265625,0.0238037109375
1760107092118127400,8.93012744140625,-0.91351318359375,-0.3598480224609375,0.0244140625
1760107092128193300,8.940193359375,-0.921295166015625,-0.3599700927734375,0.0248260498046875
1760107092138259500,8.950259521484375,-0.9367218017578125,-0.358245849609375,0.02313232421875
1760107092148325400,8.960325439453126,-0.9480133056640625,-0.3536834716796875,0.0201416015625
1760107092158391600,8.9703916015625,-0.9509429931640625,-0.3515472412109375,0.0218963623046875
1760107092168457500,8.98045751953125,-0.95391845703125,-0.3523101806640625,0.028717041015625
1760107092178523600,8.990523681640624,-0.9519500732421875,-0.354522705078125,0.038543701171875
1760107092188589300,9.00058935546875,-0.9482269287109375,-0.3544158935546875,0.0441741943359375
1760107092198654500,9.010654541015626,-0.9479217529296875,-0.3538665771484375,0.044525146484375
1760107092208720400,9.020720458984375,-0.9578094482421875,-0.35272216796875,0.0446624755859375
1760107092218786600,9.03078662109375,-0.97216796875,-0.353790283203125,0.0421142578125
1760107092228852500,9.0408525390625,-0.967620849609375,-0.3429718017578125,0.04071044921875
1760107092238918700,9.050918701171875,-0.9597625732421875,-0.3344573974609375,0.0436248779296875
1760107092248984300,9.060984375,-0.95855712890625,-0.339111328125,0.0521240234375
1760107092259050500,9.071050537109375,-0.9608612060546875,-0.34173583984375,0.0565338134765625
1760107092269115400,9.081115478515626,-0.965240478515625,-0.3401947021484375,0.0511627197265625
1760107092279181600,9.091181640625,-0.9675140380859375,-0.3408355712890625,0.037353515625
1760107092289247500,9.10124755859375,-0.9689178466796875,-0.3448028564453125,0.032623291015625
1760107092299313700,9.111313720703125,-0.968353271484375,-0.345001220703125,0.037872314453125
1760107092309379300,9.12137939453125,-0.963287353515625,-0.339874267578125,0.0464630126953125
1760107092319445200,9.1314453125,-0.95196533203125,-0.33514404296875,0.0538177490234375
1760107092329511400,9.141511474609375,-0.9430084228515625,-0.334442138671875,0.05462646484375
1760107092339577300,9.151577392578124,-0.9391326904296875,-0.3365020751953125,0.0500335693359375
1760107092349642500,9.161642578125,-0.936676025390625,-0.3415679931640625,0.042144775390625
1760107092359708700,9.171708740234376,-0.937408447265625,-0.345428466796875,0.0355377197265625
1760107092369774300,9.1817744140625,-0.9305877685546875,-0.3456573486328125,0.0365142822265625
1760107092379840300,9.19184033203125,-0.9182586669921875,-0.34521484375,0.04345703125
1760107092389906400,9.201906494140625,-0.9044036865234375,-0.34515380859375,0.0526275634765625
1760107092399972400,9.211972412109375,-0.8971710205078125,-0.3448486328125,0.0585784912109375
1760107092410038500,9.22203857421875,-0.899627685546875,-0.3468475341796875,0.05499267578125
1760107092420104400,9.2321044921875,-0.9073944091796875,-0.3477783203125,0.046875
1760107092430169300,9.24216943359375,-0.9185943603515625,-0.3465576171875,0.0419464111328125
1760107092440235300,9.2522353515625,-0.9296417236328125,-0.3456878662109375,0.0399932861328125
1760107092450301400,9.262301513671876,-0.9425201416015625,-0.3469696044921875,0.043304443359375
1760107092460367400,9.272367431640625,-0.9540252685546875,-0.347503662109375,0.0432281494140625
1760107092470433500,9.28243359375,-0.9632720947265625,-0.3462982177734375,0.041290283203125
1760107092480499500,9.29249951171875,-0.9695587158203125,-0.3493194580078125,0.036041259765625
1760107092490565600,9.302565673828125,-0.9730377197265625,-0.3547515869140625,0.0344390869140625
1760107092500630300,9.31263037109375,-0.9669647216796875,-0.3546142578125,0.03692626953125
1760107092510696400,9.322696533203125,-0.9521484375,-0.3546295166015625,0.0434417724609375
1760107092520762400,9.332762451171876,-0.9359893798828125,-0.3564910888671875,0.0520172119140625
1760107092530828500,9.34282861328125,-0.9239959716796875,-0.35955810546875,0.0576324462890625
1760107092540894500,9.35289453125,-0.924530029296875,-0.3640899658203125,0.0520477294921875
1760107092550960600,9.362960693359375,-0.94244384765625,-0.3654327392578125,0.042205810546875
1760107092561026300,9.3730263671875,-0.9689788818359375,-0.36163330078125,0.0349273681640625
1760107092571092500,9.383092529296874,-0.98468017578125,-0.3490447998046875,0.035491943359375
1760107092581157400,9.393157470703125,-0.98272705078125,-0.33831787109375,0.04052734375
1760107092591223600,9.4032236328125,-0.9732666015625,-0.3336639404296875,0.0509185791015625
1760107092601289500,9.41328955078125,-0.9659423828125,-0.33447265625,0.06024169921875
1760107092611355600,9.423355712890626,-0.9570159912109375,-0.3326568603515625,0.0590057373046875
1760107092621421300,9.43342138671875,-0.9551849365234375,-0.3336029052734375,0.050811767578125
1760107092631487500,9.443487548828125,-0.957244873046875,-0.3369293212890625,0.0426177978515625
1760107092641553400,9.453553466796874,-0.959686279296875,-0.3387603759765625,0.03961181640625
1760107092651618600,9.46361865234375,-0.9539031982421875,-0.3360137939453125,0.03948974609375
1760107092661684500,9.4736845703125,-0.9374847412109375,-0.3331298828125,0.040985107421875
1760107092671750700,9.483750732421875,-0.9223785400390625,-0.3337249755859375,0.04638671875
1760107092681816300,9.49381640625,-0.9166107177734375,-0.335784912109375,0.049346923828125
1760107092691882500,9.503882568359375,-0.917938232421875,-0.337646484375,0.0448150634765625
1760107092701948400,9.513948486328125,-0.927886962890625,-0.339569091796875,0.0369873046875
1760107092712014300,9.524014404296874,-0.9365386962890625,-0.342071533203125,0.0323333740234375
1760107092722080500,9.53408056640625,-0.9440460205078125,-0.345794677734375,0.0317840576171875
1760107092732145700,9.544145751953126,-0.94696044921875,-0.346466064453125,0.0351715087890625
1760107092742211300,9.55421142578125,-0.9479522705078125,-0.344635009765625,0.034759521484375
1760107092752277200,9.56427734375,-0.948333740234375,-0.342681884765625,0.0288543701171875
1760107092762343400,9.574343505859375,-0.950958251953125,-0.34649658203125,0.022979736328125
1760107092772409300,9.584409423828125,-0.9549102783203125,-0.35302734375,0.0252532958984375
1760107092782475500,9.5944755859375,-0.951995849609375,-0.35333251953125,0.029510498046875
1760107092792541400,9.60454150390625,-0.94580078125,-0.351409912109375,0.03839111328125
1760107092802607600,9.614607666015624,-0.9451141357421875,-0.350128173828125,0.0486602783203125
1760107092812672300,9.62467236328125,-0.9517822265625,-0.3496246337890625,0.0518035888671875
1760107092822738400,9.634738525390626,-0.96234130859375,-0.3489837646484375,0.0481719970703125
1760107092832804400,9.644804443359375,-0.9693450927734375,-0.3479766845703125,0.04058837890625
1760107092842870500,9.65487060546875,-0.9730987548828125,-0.347320556640625,0.0373687744140625
1760107092852936400,9.6649365234375,-0.96856689453125,-0.3450469970703125,0.03875732421875
1760107092863002600,9.675002685546875,-0.9610748291015625,-0.3433380126953125,0.043365478515625
1760107092873068500,9.685068603515624,-0.95550537109375,-0.3426666259765625,0.0494842529296875
1760107092883133400,9.695133544921875,-0.948974609375,-0.34210205078125,0.0508880615234375
1760107092893199400,9.705199462890626,-0.940521240234375,-0.343658447265625,0.047637939453125
1760107092903265500,9.715265625,-0.9363250732421875,-0.3470458984375,0.042572021484375
1760107092913331500,9.72533154296875,-0.9342803955078125,-0.3511505126953125,0.036773681640625
1760107092923397600,9.735397705078125,-0.9342041015625,-0.35186767578125,0.034027099609375
1760107092933463300,9.74546337890625,-0.9336395263671875,-0.3470306396484375,0.03533935546875
1760107092943529500,9.755529541015624,-0.9340057373046875,-0.3435211181640625,0.039459228515625
1760107092953595400,9.765595458984375,-0.940093994140625,-0.3401641845703125,0.04278564453125
1760107092963660500,9.77566064453125,-0.9459228515625,-0.3368988037109375,0.041229248046875
1760107092973726500,9.7857265625,-0.9524078369140625,-0.3359222412109375,0.041046142578125
1760107092983792600,9.795792724609376,-0.9600830078125,-0.336944580078125,0.04315185546875
1760107092993858300,9.8058583984375,-0.962432861328125,-0.3398284912109375,0.0452728271484375
1760107093003924500,9.815924560546875,-0.9620819091796875,-0.3408050537109375,0.046112060546875
1760107093013990400,9.825990478515624,-0.959228515625,-0.343414306640625,0.041534423828125
1760107093024056300,9.836056396484375,-0.9518585205078125,-0.344451904296875,0.0396270751953125
1760107093034121500,9.84612158203125,-0.94232177734375,-0.3456573486328125,0.0385589599609375
1760107093044187600,9.856187744140625,-0.937042236328125,-0.35052490234375,0.0389404296875
1760107093054253300,9.86625341796875,-0.9374542236328125,-0.351959228515625,0.037353515625
1760107093064319500,9.876319580078125,-0.9464569091796875,-0.3543243408203125,0.030609130859375
1760107093074385400,9.886385498046875,-0.9599609375,-0.3555145263671875,0.0290069580078125
1760107093084451300,9.896451416015625,-0.9661712646484375,-0.353912353515625,0.03173828125
1760107093094517500,9.906517578125,-0.96221923828125,-0.3470458984375,0.0361785888671875
1760107093104583400,9.91658349609375,-0.951416015625,-0.343719482421875,0.04119873046875
1760107093114648300,9.9266484375,-0.9404449462890625,-0.3439788818359375,0.0466156005859375
1760107093124715000,9.936715087890626,-0.9330291748046875,-0.3439788818359375,0.054412841796875
1760107093134781200,9.94678125,-0.9320526123046875,-0.3433837890625,0.0581512451171875
1760107093144847000,9.95684716796875,-0.936553955078125,-0.3399810791015625,0.0568695068359375
1760107093154913000,9.9669130859375,-0.938507080078125,-0.3396453857421875,0.0516815185546875
1760107093164979000,9.97697900390625,-0.9383392333984375,-0.341796875,0.04364013671875
1760107093175045000,9.987045166015625,-0.9386138916015625,-0.3453826904296875,0.03857421875
1760107093185111000,9.997111083984375,-0.9361114501953125,-0.3467254638671875,0.03680419921875
1760107093195176200,10.00717626953125,-0.9324493408203125,-0.3459930419921875,0.03680419921875
1760107093205241900,10.017241943359375,-0.9340972900390625,-0.344696044921875,0.0379180908203125
1760107093215308000,10.02730810546875,-0.9399871826171875,-0.3442230224609375,0.0434417724609375
1760107093225374000,10.0373740234375,-0.945220947265625,-0.34283447265625,0.0495147705078125
1760107093235440000,10.047440185546876,-0.9450531005859375,-0.3407745361328125,0.0533447265625
1760107093245506000,10.057506103515625,-0.941986083984375,-0.3414154052734375,0.0511474609375
1760107093255572000,10.067572021484375,-0.9376678466796875,-0.34576416015625,0.04510498046875
1760107093265636900,10.077636962890624,-0.936920166015625,-0.3506317138671875,0.0416717529296875
1760107093275703000,10.087703125,-0.9393157958984375,-0.3540802001953125,0.03839111328125
1760107093285769000,10.09776904296875,-0.9420318603515625,-0.3538055419921875,0.0366058349609375
1760107093295835100,10.107835205078125,-0.9457244873046875,-0.352386474609375,0.0357513427734375
1760107093305901000,10.117901123046876,-0.9510955810546875,-0.3498077392578125,0.038543701171875
1760107093315967000,10.127967041015625,-0.95660400390625,-0.347503662109375,0.038177490234375
1760107093326033200,10.138033203125,-0.960601806640625,-0.34661865234375,0.0370941162109375
1760107093336099000,10.14809912109375,-0.96099853515625,-0.3477020263671875,0.039276123046875
1760107093346164000,10.1581640625,-0.958709716796875,-0.348052978515625,0.03955078125
1760107093356230100,10.168230224609376,-0.9564666748046875,-0.348052978515625,0.03924560546875
1760107093366296000,10.178296142578125,-0.9527130126953125,-0.3481292724609375,0.040771484375
1760107093376362000,10.188362060546876,-0.9465179443359375,-0.3470001220703125,0.0438079833984375
1760107093386428200,10.19842822265625,-0.9417724609375,-0.3468170166015625,0.0478973388671875
1760107093396494000,10.208494140625,-0.9402008056640625,-0.346435546875,0.0514678955078125
1760107093406560000,10.21856005859375,-0.940643310546875,-0.346099853515625,0.0511322021484375
1760107093416625000,10.228625,-0.946014404296875,-0.3492584228515625,0.0452728271484375
1760107093426691000,10.238691162109374,-0.9556121826171875,-0.3538665771484375,0.0349578857421875
1760107093436757000,10.248757080078125,-0.9618377685546875,-0.35589599609375,0.0266265869140625
1760107093446823200,10.2588232421875,-0.96075439453125,-0.355560302734375,0.0251922607421875
1760107093456889000,10.26888916015625,-0.954132080078125,-0.3535003662109375,0.030975341796875
1760107093466955000,10.278955078125,-0.9430999755859375,-0.35076904296875,0.0356903076171875
1760107093477021000,10.28902099609375,-0.93133544921875,-0.35113525390625,0.0392913818359375
1760107093487087000,10.299087158203125,-0.9239501953125,-0.353057861328125,0.0432586669921875
1760107093497152000,10.309152099609374,-0.9250030517578125,-0.3562774658203125,0.0425872802734375
1760107093507218200,10.31921826171875,-0.9352264404296875,-0.356231689453125,0.0416107177734375
1760107093517284000,10.3292841796875,-0.946319580078125,-0.34930419921875,0.0397491455078125
1760107093527350000,10.33935009765625,-0.9526824951171875,-0.3444366455078125,0.035186767578125
1760107093537416000,10.349416015625,-0.953765869140625,-0.342559814453125,0.0385284423828125
1760107093547482000,10.359482177734375,-0.94976806640625,-0.341888427734375,0.0442962646484375
1760107093557548000,10.369548095703125,-0.9411163330078125,-0.3409881591796875,0.046539306640625
1760107093567613200,10.37961328125,-0.9347076416015625,-0.3424530029296875,0.0437164306640625
1760107093577678800,10.389678955078125,-0.931549072265625,-0.3470001220703125,0.0353240966796875
1760107093587745000,10.3997451171875,-0.9327392578125,-0.353668212890625,0.030609130859375
1760107093597811000,10.40981103515625,-0.942535400390625,-0.3571014404296875,0.0304412841796875
1760107093607877000,10.419877197265626,-0.95477294921875,-0.35589599609375,0.0336456298828125
1760107093617943000,10.429943115234375,-0.967498779296875,-0.349884033203125,0.038482666015625
1760107093628009000,10.440009033203125,-0.9720458984375,-0.3428955078125,0.0435028076171875
1760107093638075100,10.4500751953125,-0.9676666259765625,-0.3414154052734375,0.0498504638671875
1760107093648140000,10.46014013671875,-0.9555511474609375,-0.343017578125,0.0523223876953125
1760107093658206000,10.4702060546875,-0.94049072265625,-0.3460693359375,0.04815673828125
1760107093668272000,10.480272216796875,-0.93017578125,-0.3498992919921875,0.0402069091796875
1760107093678338000,10.490338134765626,-0.92193603515625,-0.3533172607421875,0.0392303466796875
1760107093688404000,10.500404052734375,-0.91839599609375,-0.352142333984375,0.038909912109375
1760107093698470100,10.51047021484375,-0.9232940673828125,-0.348175048828125,0.0389404296875
1760107093708536000,10.5205361328125,-0.9316864013671875,-0.3457183837890625,0.0440216064453125
1760107093718601000,10.53060107421875,-0.9431610107421875,-0.3426055908203125,0.049652099609375
1760107093728667100,10.540667236328124,-0.9518890380859375,-0.3389892578125,0.0508270263671875
1760107093738733000,10.550733154296875,-0.9537506103515625,-0.3385009765625,0.0491790771484375
1760107093748799000,10.560799072265626,-0.9528045654296875,-0.3397674560546875,0.047515869140625
1760107093758865200,10.570865234375,-0.9485931396484375,-0.344146728515625,0.045623779296875
1760107093768931000,10.58093115234375,-0.945281982421875,-0.34759521484375,0.0423583984375
1760107093778997000,10.5909970703125,-0.9466552734375,-0.350982666015625,0.0385894775390625
1760107093789063000,10.60106298828125,-0.952972412109375,-0.35162353515625,0.040283203125
1760107093799128000,10.611128173828124,-0.95709228515625,-0.348968505859375,0.040557861328125
1760107093809194000,10.621194091796875,-0.9575042724609375,-0.3477020263671875,0.0374603271484375
1760107093819260200,10.63126025390625,-0.9568328857421875,-0.3483428955078125,0.03533935546875
1760107093829326000,10.641326171875,-0.9521484375,-0.3521881103515625,0.036224365234375
1760107093839392000,10.65139208984375,-0.94366455078125,-0.352752685546875,0.03692626953125
1760107093849458000,10.6614580078125,-0.9367828369140625,-0.353271484375,0.036041259765625
1760107093859524000,10.671524169921875,-0.935699462890625,-0.3547210693359375,0.03778076171875
1760107093869589000,10.681589111328124,-0.9400177001953125,-0.3534088134765625,0.0410308837890625
1760107093879655200,10.6916552734375,-0.9424896240234375,-0.3465728759765625,0.0407562255859375
1760107093889721000,10.70172119140625,-0.94097900390625,-0.3427734375,0.0434417724609375
1760107093899787000,10.711787109375,-0.93426513671875,-0.343841552734375,0.045166015625
1760107093909853000,10.72185302734375,-0.930999755859375,-0.3463897705078125,0.04412841796875
1760107093919919000,10.731919189453125,-0.929718017578125,-0.347412109375,0.0424041748046875
1760107093929985000,10.741985107421876,-0.9332733154296875,-0.3466949462890625,0.0413818359375
1760107093940051200,10.75205126953125,-0.9406280517578125,-0.346405029296875,0.043792724609375
1760107093950115800,10.76211572265625,-0.945220947265625,-0.3429412841796875,0.0482025146484375
1760107093960182000,10.77218212890625,-0.9502105712890625,-0.3413848876953125,0.0494232177734375
1760107093970248000,10.782248046875,-0.95770263671875,-0.34222412109375,0.0478057861328125
1760107093980314000,10.792314208984376,-0.9657135009765625,-0.342193603515625,0.0415802001953125
1760107093990380000,10.802380126953125,-0.9659271240234375,-0.343292236328125,0.036163330078125
1760107094000446200,10.8124462890625,-0.958892822265625,-0.3447418212890625,0.0328216552734375
1760107094010512100,10.82251220703125,-0.949920654296875,-0.346954345703125,0.0347442626953125
1760107094020577000,10.832576904296875,-0.94000244140625,-0.34857177734375,0.035430908203125
1760107094030643000,10.842642822265624,-0.9333648681640625,-0.3487548828125,0.0338287353515625
1760107094040709000,10.852709228515625,-0.9326324462890625,-0.3513031005859375,0.035675048828125
1760107094050775000,10.862775146484376,-0.9356536865234375,-0.352691650390625,0.041351318359375
1760107094060841000,10.872841064453125,-0.941680908203125,-0.3519744873046875,0.046142578125
1760107094070907100,10.8829072265625,-0.94842529296875,-0.3471527099609375,0.0460357666015625
1760107094080973000,10.89297314453125,-0.95477294921875,-0.34222412109375,0.0432586669921875
1760107094091039000,10.9030390625,-0.9557952880859375,-0.3419952392578125,0.0428314208984375
1760107094101104000,10.913104248046874,-0.95770263671875,-0.344146728515625,0.0398406982421875
1760107094111170000,10.923170166015625,-0.95648193359375,-0.34686279296875,0.0366363525390625
1760107094121236000,10.933236083984376,-0.95379638671875,-0.34600830078125,0.0334930419921875
1760107094131301400,10.94330126953125,-0.948150634765625,-0.3451385498046875,0.034759521484375
1760107094141367600,10.953367431640626,-0.942596435546875,-0.3451385498046875,0.0399322509765625
1760107094151433500,10.96343359375,-0.9409332275390625,-0.346282958984375,0.046630859375
1760107094161499400,10.97349951171875,-0.9402618408203125,-0.346893310546875,0.0489501953125
1760107094171564300,10.983564208984374,-0.93896484375,-0.3461456298828125,0.0456085205078125
1760107094181630500,10.99363037109375,-0.939300537109375,-0.3462371826171875,0.0399017333984375
1760107094191696400,11.0036962890625,-0.943939208984375,-0.349029541015625,0.0383148193359375
1760107094201762600,11.013762451171875,-0.94970703125,-0.3477935791015625,0.042388916015625
1760107094211828500,11.023828369140626,-0.9558258056640625,-0.342742919921875,0.0449981689453125
1760107094221894400,11.033894287109375,-0.9591522216796875,-0.3368072509765625,0.04608154296875
1760107094231960600,11.043960693359375,-0.96173095703125,-0.335662841796875,0.0473480224609375
1760107094242026500,11.054026611328124,-0.966064453125,-0.33966064453125,0.04400634765625
1760107094252091400,11.06409130859375,-0.9652099609375,-0.342926025390625,0.0388336181640625
1760107094262157600,11.074157470703126,-0.96319580078125,-0.3461151123046875,0.035614013671875
1760107094272223500,11.084223388671875,-0.95526123046875,-0.34686279296875,0.0367889404296875
1760107094282289400,11.094289306640626,-0.9431610107421875,-0.34649658203125,0.038177490234375
1760107094292355600,11.10435546875,-0.93408203125,-0.3469085693359375,0.03790283203125
1760107094302421500,11.11442138671875,-0.933929443359375,-0.3515625,0.0378570556640625
1760107094312487400,11.1244873046875,-0.94073486328125,-0.3535003662109375,0.03564453125
1760107094322552300,11.13455224609375,-0.951629638671875,-0.3515472412109375,0.0326690673828125
1760107094332618500,11.144618408203126,-0.9581298828125,-0.3479766845703125,0.03253173828125
1760107094342684400,11.154684326171875,-0.9569244384765625,-0.34552001953125,0.03729248046875
1760107094352750600,11.16475048828125,-0.94976806640625,-0.3455352783203125,0.041839599609375
1760107094362816500,11.17481640625,-0.945465087890625,-0.348968505859375,0.0430145263671875
1760107094372882400,11.18488232421875,-0.9440155029296875,-0.3496551513671875,0.0398101806640625
1760107094382948400,11.1949482421875,-0.9434967041015625,-0.3488922119140625,0.037017822265625
1760107094393013500,11.205013427734375,-0.94683837890625,-0.3483428955078125,0.0377655029296875
1760107094403079400,11.215079345703124,-0.9527130126953125,-0.3449554443359375,0.0484619140625
1760107094413145600,11.2251455078125,-0.9602203369140625,-0.33721923828125,0.0557403564453125
1760107094423211300,11.235211181640626,-0.9600677490234375,-0.328399658203125,0.056488037109375
1760107094433277400,11.24527734375,-0.953277587890625,-0.3256072998046875,0.0536956787109375
1760107094443343400,11.25534326171875,-0.9475555419921875,-0.330657958984375,0.048248291015625
1760107094453409500,11.265409423828125,-0.9449462890625,-0.338897705078125,0.0411376953125
1760107094463475500,11.275475341796875,-0.945068359375,-0.3424072265625,0.039337158203125
1760107094473540600,11.28554052734375,-0.9482574462890625,-0.339996337890625,0.0417022705078125
1760107094483606300,11.295606201171875,-0.9496917724609375,-0.3354034423828125,0.048980712890625
1760107094493672400,11.30567236328125,-0.95013427734375,-0.3327484130859375,0.0556793212890625
1760107094503738400,11.31573828125,-0.9466552734375,-0.3328094482421875,0.0558624267578125
1760107094513804500,11.325804443359376,-0.9394683837890625,-0.3361053466796875,0.0534820556640625
1760107094523870500,11.335870361328125,-0.9315338134765625,-0.342315673828125,0.0469512939453125
1760107094533936400,11.345936279296875,-0.9284820556640625,-0.3475799560546875,0.0384521484375
1760107094544001300,11.356001220703124,-0.9254608154296875,-0.3511199951171875,0.0336151123046875
1760107094554067500,11.3660673828125,-0.9219818115234375,-0.350921630859375,0.0360870361328125
1760107094564133400,11.37613330078125,-0.920074462890625,-0.35101318359375,0.040924072265625
1760107094574199600,11.386199462890625,-0.926544189453125,-0.3506622314453125,0.04693603515625
1760107094584265500,11.396265380859376,-0.9345550537109375,-0.3486328125,0.0487518310546875
1760107094594331400,11.406331298828125,-0.9394378662109375,-0.3472137451171875,0.0467987060546875
1760107094604397600,11.4163974609375,-0.94573974609375,-0.3472747802734375,0.0470428466796875
1760107094614463500,11.42646337890625,-0.950714111328125,-0.3474578857421875,0.0442047119140625
1760107094624528400,11.4365283203125,-0.9548492431640625,-0.345977783203125,0.04150390625
1760107094634594600,11.446594482421874,-0.9553070068359375,-0.344879150390625,0.0389556884765625
1760107094644660500,11.456660400390625,-0.9539794921875,-0.3438720703125,0.039337158203125
1760107094654726400,11.466726318359376,-0.9575958251953125,-0.34381103515625,0.044342041015625
1760107094664792600,11.47679248046875,-0.962249755859375,-0.3428955078125,0.0502777099609375
1760107094674858500,11.4868583984375,-0.9662322998046875,-0.3409271240234375,0.0508575439453125
1760107094684924400,11.49692431640625,-0.9666900634765625,-0.3407745361328125,0.0517578125
1760107094694989600,11.506989501953125,-0.965240478515625,-0.3426971435546875,0.0529022216796875
1760107094705055500,11.517055419921874,-0.95989990234375,-0.34405517578125,0.0527801513671875
1760107094715121400,11.527121337890625,-0.951202392578125,-0.3443145751953125,0.052642822265625
1760107094725187600,11.5371875,-0.94476318359375,-0.3452606201171875,0.0493927001953125
1760107094735253500,11.54725341796875,-0.9423980712890625,-0.348541259765625,0.0472259521484375
1760107094745319400,11.5573193359375,-0.9439849853515625,-0.3496551513671875,0.047607421875
1760107094755385300,11.56738525390625,-0.9472503662109375,-0.3463592529296875,0.048828125
1760107094765450500,11.577450439453125,-0.9505462646484375,-0.341644287109375,0.0483856201171875
1760107094775516400,11.587516357421874,-0.9517364501953125,-0.3390045166015625,0.0472869873046875
1760107094785582600,11.59758251953125,-0.95166015625,-0.340576171875,0.0463714599609375
1760107094795648300,11.607648193359376,-0.9480438232421875,-0.340606689453125,0.04931640625
1760107094805714400,11.61771435546875,-0.942962646484375,-0.34088134765625,0.047149658203125
1760107094815780400,11.6277802734375,-0.9399871826171875,-0.342041015625,0.0430145263671875
1760107094825846500,11.637846435546875,-0.937774658203125,-0.3430938720703125,0.0415191650390625
1760107094835911400,11.647911376953125,-0.9366912841796875,-0.343597412109375,0.040924072265625
1760107094845977600,11.6579775390625,-0.936492919921875,-0.34356689453125,0.0414886474609375
1760107094856043300,11.668043212890625,-0.9408111572265625,-0.3426666259765625,0.0472259521484375
1760107094866109400,11.678109375,-0.9440460205078125,-0.3411407470703125,0.048004150390625
1760107094876175400,11.68817529296875,-0.94744873046875,-0.340240478515625,0.047576904296875
1760107094886241500,11.698241455078126,-0.9536285400390625,-0.3428497314453125,0.04766845703125
1760107094896307500,11.708307373046875,-0.959442138671875,-0.3447723388671875,0.0434112548828125
1760107094906373400,11.718373291015626,-0.9583587646484375,-0.3448486328125,0.0416717529296875
1760107094916438300,11.728438232421874,-0.9544677734375,-0.3452301025390625,0.0422515869140625
1760107094926504400,11.73850439453125,-0.949554443359375,-0.345123291015625,0.0390167236328125
1760107094936570400,11.7485703125,-0.935150146484375,-0.346282958984375,0.03436279296875
1760107094946636500,11.758636474609375,-0.9275665283203125,-0.350189208984375,0.04278564453125
1760107094956702500,11.768702392578126,-0.9343719482421875,-0.352691650390625,0.0470123291015625
1760107094966768400,11.778768310546875,-0.944732666015625,-0.345428466796875,0.0460357666015625
1760107094976834600,11.78883447265625,-0.9567108154296875,-0.334716796875,0.0469207763671875
1760107094986899500,11.7988994140625,-0.9633636474609375,-0.3295440673828125,0.0489654541015625
1760107094996965400,11.80896533203125,-0.96551513671875,-0.3325653076171875,0.0467071533203125
1760107095007031600,11.819031494140624,-0.966064453125,-0.335418701171875,0.046905517578125
1760107095017097500,11.829097412109375,-0.9637603759765625,-0.33465576171875,0.0468902587890625
1760107095027163400,11.839163330078126,-0.962432861328125,-0.3328857421875,0.048309326171875
1760107095037229600,11.8492294921875,-0.96038818359375,-0.3329925537109375,0.04998779296875
1760107095047295500,11.85929541015625,-0.96173095703125,-0.3381195068359375,0.035797119140625
1760107095057360400,11.8693603515625,-0.960968017578125,-0.3500213623046875,0.0218963623046875
1760107095067426600,11.879426513671875,-0.9666748046875,-0.3646392822265625,0.0123291015625
1760107095077492500,11.889492431640624,-0.9825592041015625,-0.3745269775390625,0.0055999755859375
1760107095087558400,11.899558349609375,-0.9679718017578125,-0.365142822265625,0.0156707763671875
1760107095097624600,11.90962451171875,-0.930450439453125,-0.3498687744140625,0.0390167236328125
1760107095107690200,11.919690185546875,-0.9128570556640625,-0.3446807861328125,0.0709381103515625
1760107095117756400,11.92975634765625,-0.91259765625,-0.342071533203125,0.0914764404296875
1760107095127821000,11.939821044921874,-0.9266204833984375,-0.3393402099609375,0.08343505859375
1760107095137887000,11.949886962890625,-0.93536376953125,-0.337310791015625,0.0715179443359375
1760107095147953200,11.959953125,-0.9330291748046875,-0.338836669921875,0.064178466796875
1760107095158019000,11.97001904296875,-0.9291534423828125,-0.34991455078125,0.0550079345703125
1760107095168085000,11.9800849609375,-0.9345703125,-0.3603515625,0.0453033447265625
1760107095178151200,11.990151123046875,-0.9384613037109375,-0.3600311279296875,0.03814697265625
1760107095188217000,12.000217041015626,-0.9297943115234375,-0.35284423828125,0.0380706787109375
1760107095198283300,12.010283203125,-0.925994873046875,-0.349365234375,0.0610198974609375
1760107095208348200,12.02034814453125,-0.9221343994140625,-0.3406982421875,0.0820770263671875
1760107095218414000,12.0304140625,-0.9117889404296875,-0.3217010498046875,0.0990753173828125
1760107095228480000,12.04047998046875,-0.947235107421875,-0.310638427734375,0.0995941162109375
1760107095238546200,12.050546142578124,-0.9695892333984375,-0.33172607421875,0.090423583984375
1760107095248612000,12.060612060546875,-0.9732513427734375,-0.350250244140625,0.0644683837890625
1760107095258678000,12.070677978515626,-0.9556884765625,-0.364471435546875,0.0372314453125
1760107095268744000,12.080743896484375,-0.932647705078125,-0.3670196533203125,0.0233001708984375
1760107095278809000,12.09080908203125,-0.905548095703125,-0.3569183349609375,0.0320892333984375
1760107095288875000,12.100875,-0.9059600830078125,-0.330474853515625,0.061737060546875
1760107095298941200,12.110941162109375,-0.925201416015625,-0.31695556640625,0.090118408203125
