time,seconds_elapsed,z,y,x
1760107083218631700,0.030631591796875,-0.12629179948568342,0.07230506549328565,0.08813625635355711
1760107083228696600,0.040696533203125,-0.09789514156281948,0.08512158470749855,0.10388291073553263
1760107083238762500,0.050762451171875,-0.044079964745044706,0.0765557086750865,0.13007431369908154
1760107083248828700,0.06082861328125,-0.017562544697523115,0.0395534272313118,0.16621376776844263
1760107083258894600,0.07089453125,-0.00964344213604927,0.04803133271932602,0.17485552204865962
1760107083268960800,0.080960693359375,-0.007972878575325013,0.07817541883140802,0.1406256279276684
1760107083279026700,0.091026611328125,-0.012909750455617904,0.06883095964193343,0.09665690500475466
1760107083289092900,0.1010927734375,-0.009406126248836516,0.06548749443292617,0.06919354587662965
1760107083299158500,0.111158447265625,0.010677461358904837,0.06787994252741336,0.06374371950551867
1760107083309224700,0.121224609375,-0.017038813084363936,0.05743541314154863,0.10832019906323402
1760107083319289600,0.13128955078125,-0.07446399709284306,0.06980477311015129,0.12731997348964214
1760107083329355800,0.141355712890625,-0.1221060382336378,0.08489040630012751,0.11584851220883428
1760107083339421700,0.151421630859375,-0.19186580315828322,0.05103022227436304,0.12407605966497212
1760107083349487600,0.161487548828125,-0.2213075862199068,-0.00023497779965400695,0.14515907010622323
1760107083359553500,0.171553466796875,-0.24422844308018682,-0.003030453737080097,0.21552655513305216
1760107083369619700,0.18161962890625,-0.17412731737196444,-0.052044367752969264,0.23164474624115972
1760107083379685600,0.191685546875,-0.1531546719700098,-0.1025298156261444,0.2273765308700502
1760107083389751600,0.20175146484375,-0.13372048818171023,-0.10376783298850059,0.216614386902377
1760107083399817700,0.211817626953125,-0.1152916820436716,-0.13394348328262567,0.15316362246144563
1760107083409882600,0.221882568359375,-0.07738368393182754,-0.1738873711362481,0.16818521397188305
1760107083419948500,0.231948486328125,-0.00537701686322689,-0.18403116400986907,0.20722601550593972
1760107083430014700,0.2420146484375,0.10269465079903602,-0.22712562484890222,0.15315448930691927
1760107083440080600,0.25208056640625,0.17926760286986826,-0.22739245909154412,0.147414484350197
1760107083450146600,0.262146484375,0.23539397923946379,-0.13064414947628974,0.1835560573114082
1760107083460212700,0.272212646484375,0.1771095480531454,-0.07938128748983145,0.23900267125591634
1760107083470278700,0.282278564453125,0.07411620656847953,-0.00004939209967851639,0.27102975810300556
1760107083480344800,0.2923447265625,-0.03902326587736606,0.07089081478118896,0.2227880705686286
1760107083490410500,0.302410400390625,-0.1133656824171543,0.10763766015917062,0.17126706910263745
1760107083500475600,0.3124755859375,-0.19829905107617377,0.10939531748145818,0.14105828372389076
1760107083510541600,0.32254150390625,-0.27596856621205806,0.08210574401766062,0.06832297358717769
1760107083520607700,0.332607666015625,-0.3754465930521488,0.06276888312399387,0.025488405793346464
1760107083530673700,0.342673583984375,-0.39411388412117954,0.04373042065501213,0.006731134885922074
1760107083540739800,0.35273974609375,-0.30955636303722855,0.037893092803657054,0.007753390605747699
1760107083550805500,0.362805419921875,-0.24558278029859065,0.0406295320302248,0.04077902350351214
1760107083560871700,0.37287158203125,-0.15804419757723806,0.030989304764568803,0.08646459681428968
1760107083570937600,0.3829375,-0.09698854811191558,0.02463730538934469,0.11032331904657185
1760107083581003800,0.393003662109375,-0.04455868817269802,0.00897679492086172,0.069189856082201
1760107083591068700,0.403068603515625,-0.015644728377461434,-0.026466274382174013,0.017623042713105677
1760107083601134800,0.413134765625,-0.03543196338713169,-0.07277765144109725,0.12439031324591487
1760107083611200500,0.423200439453125,-0.09306932884156703,-0.09126023359298706,0.1928514166621491
1760107083621266700,0.4332666015625,-0.20141630631387233,-0.05556611213833093,0.20648633958715945
1760107083631332600,0.44333251953125,-0.3493330776304006,-0.001491115340590477,0.1857155369002372
1760107083641398800,0.453398681640625,-0.4557873732239008,0.013461831380426883,0.09931399538479745
1760107083651464700,0.463464599609375,-0.48379824669957155,-0.055468496982753274,-0.02486143300142139
1760107083661530600,0.473530517578125,-0.388883582252264,-0.16103753417432307,-0.1255847837274894
1760107083671595500,0.483595458984375,-0.2414928806364536,-0.22970219733864067,-0.21278076355624942
1760107083681661700,0.49366162109375,-0.12143208449482917,-0.26684271820932626,-0.262261308703199
1760107083691727600,0.5037275390625,-0.058820437759160994,-0.28787030866891145,-0.3020893881574273
1760107083701793800,0.513793701171875,-0.0876987417191267,-0.242946878837049,-0.29894575636945664
1760107083711859700,0.523859619140625,-0.16960019533634185,-0.1795715542525053,-0.26530812905319034
1760107083721925600,0.533925537109375,-0.31851942169368264,-0.06703530839681625,-0.22141736673731355
1760107083731991800,0.54399169921875,-0.3962567413687706,0.04108575136512518,-0.11417301674466579
1760107083742057500,0.554057373046875,-0.40258477534651754,0.1113005665808916,0.04592025884948671
1760107083752123600,0.56412353515625,-0.3058879036575556,0.19882570529878138,0.0984563191095367
1760107083762189600,0.574189453125,-0.1441968740105629,0.20252134494632482,0.20966062224172055
1760107083772254700,0.584254638671875,0.030911271092295644,0.2146761853814125,0.3044159314088523
1760107083782320600,0.594320556640625,0.20699206061959266,0.2633879015803337,0.3398424514358863
1760107083792386800,0.60438671875,0.28545360291600225,0.3101639735415578,0.3153239866532385
1760107083802452500,0.614452392578125,0.2152209597826004,0.3141077427312732,0.3334635275211185
1760107083812518700,0.6245185546875,0.12021277183294296,0.3454471761077642,0.38927477352693673
1760107083822584600,0.63458447265625,0.09871990194916724,0.4415735544323921,0.39746706700660284
1760107083832650800,0.644650634765625,0.19330255796313284,0.44336277593672274,0.3868533915989101
1760107083842716700,0.654716552734375,0.14778466936945914,0.3590074994266033,0.45507703299745916
1760107083852781800,0.66478173828125,0.08942308129370212,0.28782997665852306,0.5270381804239005
1760107083862847500,0.674847412109375,0.0749935739248991,0.2556596454158425,0.5502263099182397
1760107083872913700,0.68491357421875,-0.021151509100198744,0.1943041362211108,0.529317085141316
1760107083882979600,0.6949794921875,-0.13714111028015613,0.15347177509516477,0.48732740720640866
1760107083893045800,0.705045654296875,-0.28294425044357774,0.13271481827050446,0.45277175172977147
1760107083903111700,0.715111572265625,-0.42530747928619383,0.12143676066994666,0.352817631810531
1760107083913177900,0.725177734375,-0.47045653456747527,0.11557166802883148,0.2231993182506412
1760107083923243800,0.735243896484375,-0.45954526445269583,0.07867898443937302,0.11769932770729065
1760107083933309400,0.745309326171875,-0.3371434581428766,0.035577217076718806,0.060424621552787716
1760107083943374600,0.75537451171875,-0.18716566264331339,0.0031090719312429427,0.0038047991104424
1760107083953440800,0.765440673828125,-0.02201660149693489,-0.002711597046256065,-0.04790668342635035
1760107083963506700,0.775506591796875,0.14101882849633693,-0.025652327650785445,-0.06972242858894169
1760107083973572600,0.785572509765625,0.21324176866412162,-0.03887918123155832,-0.037106947394646705
1760107083983638800,0.795638671875,0.20331834054291248,-0.016923077750205993,-0.041159876047261054
1760107083993704400,0.805704345703125,0.10843699384331702,0.005802548798918724,-0.0761823818506673
1760107084003770600,0.8157705078125,-0.07385784789323806,-0.01750964546650648,-0.07105075458325445
1760107084013836500,0.82583642578125,-0.24625381142795086,-0.030660218940675256,-0.05493786070477217
1760107084023902700,0.83590283203125,-0.34623803422451016,-0.009274316562712192,0.0008176182595081627
1760107084033967600,0.845967529296875,-0.34614275715649123,0.014908230796456336,0.08892837484562768
1760107084044033800,0.85603369140625,-0.2883101613909006,0.00535392824858427,0.12215124734854325
1760107084054099500,0.866099365234375,-0.15713935769200324,-0.029879005435109136,0.13197055750815198
1760107084064165600,0.87616552734375,-0.059254153001308436,-0.06231617092043161,0.16098576745446772
1760107084074231600,0.8862314453125,-0.04204349048137664,-0.07551058353632688,0.15102942344434558
1760107084084297700,0.896297607421875,-0.05698971520066261,-0.07014905650317668,0.15262721402980386
1760107084094363600,0.90636376953125,-0.14109540086388586,-0.05696224267184734,0.20698654419425874
1760107084104429800,0.916429931640625,-0.2977987052261829,-0.0050192894667387,0.23094507353920488
1760107084114495700,0.926495849609375,-0.3868658126890659,0.06047405018508434,0.2266446181326173
1760107084124560400,0.936560302734375,-0.36961364911496636,0.12182897485792636,0.17098962213443591
1760107084134626300,0.946626220703125,-0.2219610816925764,0.10265899496376514,0.0745824358407408
1760107084144692500,0.9566923828125,-0.06555822158157826,0.049475686308741565,0.01730177486948669
1760107084154758400,0.96675830078125,-0.00009586158990859984,0.013068740409612655,0.002274301607534289
1760107084164824600,0.976824462890625,-0.010125672695040703,0.02621551449149847,0.014792897321097552
1760107084174890500,0.986890380859375,-0.044595513051748276,0.07524228798896074,0.052509427981451154
1760107084184956700,0.996956787109375,-0.06605448066592216,0.14431465517133474,0.038539866274595255
1760107084195022300,1.007022216796875,-0.023414193335175512,0.18004267889559267,-0.010399192406795918
1760107084205087500,1.01708740234375,0.052182022657990455,0.17129589333832262,-0.0414079325241968
1760107084215153400,1.0271533203125,0.10347264943420886,0.16182985359579324,-0.0127821420205757
1760107084225219600,1.037219482421875,0.17154431514143942,0.12706103029251098,-0.042501792175509034
1760107084235285500,1.047285400390625,0.3244020499914884,0.1792921527892351,-0.014746354765631258
1760107084245351700,1.0573515625,0.40031449232697486,0.26618425430059434,0.13183021745570003
1760107084255417300,1.067417236328125,0.36850714917778965,0.3181996882200241,0.27151056388989087
1760107084265483300,1.077483154296875,0.26786826186478135,0.371436480627954,0.40244182321187105
1760107084275549400,1.087549560546875,0.11895663429200648,0.3294958659991622,0.34755492550935596
1760107084285615400,1.097615478515625,0.0446814377695322,0.28536855498105285,0.19584548391159623
1760107084295680500,1.107680419921875,-0.04247311407029628,0.20857290007025003,0.07916081313956529
1760107084305746400,1.117746337890625,-0.092774729809165,0.10923720431029796,0.015381182070448994
1760107084315812400,1.127812255859375,-0.12281681685149669,0.08725041342973709,0.04711655596196651
1760107084325878300,1.137878173828125,-0.11251578758955001,0.09341770388782024,0.08630356103368103
1760107084335944400,1.1479443359375,-0.11974164718985557,0.10891600953191519,0.11419234249964355
1760107084346010400,1.15801025390625,-0.12156652452945708,0.0937421135365963,0.15049535310026257
1760107084356076500,1.16807666015625,-0.13534078285992146,0.04949643683582544,0.18614738897886127
1760107084366142500,1.178142578125,-0.16148995411694048,-0.009150105661153794,0.14016750889662652
1760107084376208600,1.188208740234375,-0.14917816955447197,-0.07770604775398969,0.07264887396227568
1760107084386273300,1.198273193359375,-0.17676526466012,-0.11064619432538747,0.0723573802024126
1760107084396339500,1.20833935546875,-0.3100783410847187,-0.11552198366820811,0.09672175040189177
1760107084406405400,1.2184052734375,-0.45216684463918205,-0.06995411845296622,0.12288516937997192
1760107084416471600,1.228471435546875,-0.51591655549407,-0.00797083274871111,0.14436759093496948
1760107084426537500,1.238537353515625,-0.5223357748866081,0.03358896586894989,0.1395098487054929
1760107084436603600,1.248603759765625,-0.5056383225858211,0.024970482866466043,0.14351470043268053
1760107084446669300,1.25866943359375,-0.4602823465555906,0.01132832648307085,0.10503387086894363
1760107084456735500,1.268735595703125,-0.37255963943898673,-0.02907148844450712,0.05837634725347161
1760107084466801400,1.278801513671875,-0.19655308419167994,-0.08015256412327289,0.0236578293653205
1760107084476866600,1.288866455078125,-0.032398879301548,-0.1117953643605113,0.03212039115373045
1760107084486932500,1.298932373046875,0.08196165937185287,-0.15039455960690976,0.08915233806092292
1760107084496998700,1.30899853515625,0.12622633303403855,-0.13784808950573205,0.12084708768110722
1760107084507064300,1.319064208984375,0.056550739261507985,-0.09552578208297491,0.1471768031368032
1760107084517130500,1.329130615234375,-0.12633622314929963,-0.05273088871240616,0.12286719533186405
1760107084527196400,1.339196533203125,-0.35142449695169925,-0.009901508550345897,0.05199658308848738
1760107084537262300,1.349262451171875,-0.4859188921153545,0.03269347833395004,0.003777216983772814
1760107084547328500,1.35932861328125,-0.4691764316290617,0.06566957300156355,-0.033180458133295176
1760107084557394400,1.36939453125,-0.3262298499405384,0.08977320990562439,-0.0455367394246161
1760107084567459300,1.379459228515625,-0.11639292128384113,0.08096855668127537,-0.07742993422634899
1760107084577525500,1.389525390625,0.04719312832951546,0.05481704733669757,-0.10436283973958342
1760107084587591400,1.39959130859375,0.14738719448447227,-0.006717033295333385,-0.12057017043586819
1760107084597657300,1.4096572265625,0.15928163041770457,-0.05770429321080446,-0.12547975245043635
1760107084607723500,1.4197236328125,0.1194657528579235,-0.061138651573657984,-0.11780918128993362
1760107084617789400,1.42978955078125,0.05423895518779754,-0.020759002651274203,-0.11760010511651635
1760107084627855600,1.439855712890625,-0.015318565163016318,0.020049100816249846,-0.1496063683712855
1760107084637921500,1.449921630859375,-0.041429742497205733,0.05142798942029476,-0.17537271432317791
1760107084647986400,1.459986328125,-0.040760464933514595,0.06062193422317504,-0.21155209854412824
1760107084658052400,1.47005224609375,-0.044108021795749665,0.048149406141042704,-0.24547570319492368
1760107084668118500,1.480118408203125,-0.062390112939476966,-0.013155541910231112,-0.24327757209613918
1760107084678184400,1.490184326171875,-0.013630465945601463,-0.07949293117076157,-0.19094909017216413
1760107084688250600,1.500250732421875,0.10137830750346183,-0.09256225610226392,-0.14148805344328283
1760107084698316300,1.51031640625,0.17549568311572075,-0.09886047946363687,-0.08469700261987745
1760107084708382500,1.520382568359375,0.1559159533768892,-0.1229518414080143,-0.017415281713940203
1760107084718448400,1.530448486328125,0.08747136270403862,-0.11576660607904195,0.012942045290023088
1760107084728514600,1.5405146484375,0.0075695584714412685,-0.0820408620879054,-0.01446384802982211
1760107084738579500,1.550579345703125,-0.021199439895153046,-0.06226911690831184,-0.0698452877836302
1760107084748645600,1.560645751953125,-0.013439911809563635,-0.05917874967753887,-0.12581742343958466
1760107084758711300,1.570711181640625,-0.019370470902323723,-0.06943944692909718,-0.17965831922050565
1760107084768777500,1.580777587890625,-0.0639829350888729,-0.08009381967335939,-0.17341427373178303
1760107084778843400,1.590843505859375,-0.09628945993185042,-0.02007248169183731,-0.15259203311856837
1760107084788909300,1.600909423828125,-0.1280582246363163,0.07363982122838497,-0.13039514315128325
1760107084798975500,1.6109755859375,-0.07950432934761047,0.09850713598132133,-0.05404883944317698
1760107084809041400,1.62104150390625,0.048206104764342304,0.09140168789029121,0.05775277199503034
1760107084819107600,1.631107666015625,0.1732844368070364,0.05140986924171447,0.0814021988581866
1760107084829172500,1.64117236328125,0.23799100999534128,-0.012996551956236361,0.019219700787402687
1760107084839238400,1.65123828125,0.2425181320309639,-0.03353928150832653,-0.06021105186734348
1760107084849304300,1.66130419921875,0.162160400724411,-0.047861529110372066,-0.11298972524423151
1760107084859370500,1.67137060546875,0.024942133554816243,-0.04500000219941139,-0.07265683807302266
1760107084869436400,1.6814365234375,-0.15573299802541732,-0.01084814175069332,-0.04494779708813876
1760107084879502600,1.691502685546875,-0.29048750542998314,0.04074643640816211,-0.03938493879660964
1760107084889568500,1.701568603515625,-0.35234336536228655,0.10726882684677838,-0.023923896422982215
1760107084899634400,1.711634521484375,-0.3094283527433872,0.1235851708754897,-0.012983071420155465
1760107084909700400,1.721700439453125,-0.2102063464909792,0.084626494666934,-0.011717873789928853
1760107084919765500,1.731765625,-0.09935644628703594,0.012630348992347716,-0.013709559063799679
1760107084929831400,1.74183154296875,0.03826221837699413,-0.035066637206077576,-0.05646057676002383
1760107084939897600,1.751897705078125,0.08982932400703429,-0.05662409675866365,-0.0779687172781676
1760107084949963500,1.761963623046875,0.07686112136244773,-0.05734276642203331,-0.08341295415870845
1760107084960029400,1.772029541015625,0.024424831682443617,-0.05585895760506391,-0.05748272288199514
1760107084970095400,1.782095458984375,-0.050801966476440426,-0.05945698209702968,0.010115772355534135
1760107084980161500,1.79216162109375,-0.11471768154799937,-0.044949733316898347,0.10603855439946054
1760107084990227500,1.8022275390625,-0.12033727499544619,-0.0328194428011775,0.16056217174753545
1760107085000292600,1.812292724609375,-0.13990823690593243,-0.03765723822116852,0.22862715198565273
1760107085010358500,1.822358642578125,-0.23621523249447343,-0.023883272151648996,0.28662600769624114
1760107085020424400,1.832424560546875,-0.3848766846984625,-0.027648762165009975,0.30074564539827403
1760107085030490400,1.842490478515625,-0.49148412502706046,-0.02633738730549812,0.270375933836773
1760107085040556500,1.852556640625,-0.541651885253191,-0.05789513960778713,0.193668249470368
1760107085050622500,1.86262255859375,-0.4583908337205648,-0.10438888749629259,0.10068188620451837
1760107085060688400,1.8726884765625,-0.3288941007137298,-0.15256868877559898,0.05988298895675689
1760107085070754600,1.882754638671875,-0.21570611295104025,-0.18654490039646623,0.053765602055005725
1760107085080820500,1.892820556640625,-0.12763269270062447,-0.19785452217906713,0.07290474841948598
1760107085090885400,1.902885498046875,-0.13172960662543773,-0.18062836982905864,0.10577866135425865
1760107085100951600,1.91295166015625,-0.20308277822136878,-0.13608341792076825,0.11990242724213748
1760107085111017500,1.923017578125,-0.2940004819869995,-0.10404723445177078,0.09239720173366367
1760107085121083400,1.93308349609375,-0.3424824810832739,-0.08529109605550765,0.0786276195783168
1760107085131149600,1.943149658203125,-0.34342356132566926,-0.08447890288978814,0.023211546902544795
1760107085141215500,1.953215576171875,-0.3136941934943199,-0.06887655234932899,-0.024467538313008845
1760107085151281400,1.963281494140625,-0.24405191746950147,-0.05284165561050176,0.01472651755400002
1760107085161347300,1.973347412109375,-0.13238134853243827,-0.0219943896651268,0.08896689849141985
1760107085171413500,1.98341357421875,-0.0005114566534757614,-0.00032762451916933057,0.21804675779305396
1760107085181478400,1.993478515625,0.10858429335951804,0.03229278857856989,0.3644177609723061
1760107085191544600,2.003544677734375,0.14690321035981177,0.08250146533697843,0.458162176063843
1760107085201610500,2.013610595703125,0.08695113822221756,0.15354805520176887,0.4539848538465798
1760107085211676400,2.023676513671875,-0.043779520493745804,0.18512655803114175,0.3862551334448159
1760107085221742300,2.033742431640625,-0.17751579076647758,0.18092004625201225,0.27277879372742025
1760107085231808500,2.04380859375,-0.271653041100502,0.16695377248078583,0.15267624080330133
1760107085241874400,2.05387451171875,-0.32572131589651104,0.14344810146987438,0.13118180001694707
1760107085251940600,2.063940673828125,-0.33957156207263467,0.13063567390888928,0.17957721680831162
1760107085262005500,2.074005615234375,-0.3048012774646282,0.10443974090069531,0.23125538159739226
1760107085272071400,2.084071533203125,-0.11205343077480792,0.12461919009834527,0.2962491376966238
1760107085282137300,2.094137451171875,0.16075871723294258,0.16403613146841525,0.36185470555126664
1760107085292203500,2.10420361328125,0.40268005241453647,0.17300591212660074,0.3973560809127986
1760107085302269400,2.11426953125,0.5066945536404848,0.14701017786562443,0.34510318497568365
1760107085312335600,2.124335693359375,0.3275847716808319,0.12686755354702473,0.21683270582817493
1760107085322401500,2.134401611328125,-0.04603519046604633,0.1272825640887022,0.021782244751788676
1760107085332467500,2.144467529296875,-0.45520343585610384,0.1414931680098176,-0.14178992246668784
1760107085342533400,2.154533447265625,-0.7279588852405547,0.16433073050081728,-0.19118414103705436
1760107085352598500,2.1645986328125,-0.7115718140631914,0.14557196175605058,-0.16922694157715887
1760107085362664400,2.17466455078125,-0.38887656798958775,0.08995616525709628,-0.11140943378284573
1760107085372730400,2.18473046875,0.08459902213811873,0.0089820556178689,-0.07379826319310814
1760107085382796500,2.194796630859375,0.47095045556426046,-0.0953624082148075,-0.046574959898553786
1760107085392862500,2.204862548828125,0.5940870058894157,-0.19097148466706274,-0.03113353554084897
1760107085402928400,2.214928466796875,0.4651403079807758,-0.19121347672939298,-0.05757873060237616
1760107085412994300,2.224994384765625,0.16017594890892506,-0.12041589318960905,-0.16482940073795616
1760107085423060500,2.235060546875,-0.14742986458241938,-0.03454875081181526,-0.18447730034217238
1760107085433126400,2.24512646484375,-0.36523733372688294,0.0385597400188446,-0.05225965447146445
1760107085443191600,2.255191650390625,-0.4391635706812143,0.1276437986165285,0.15232793882228432
1760107085453257500,2.265257568359375,-0.32184418220221994,0.22053747863024473,0.3175058972695842
1760107085463323400,2.275323486328125,-0.07023205861151217,0.24444062452614307,0.40625542668327685
1760107085473389300,2.285389404296875,0.19731939238905905,0.20315058276057243,0.38907833763938393
1760107085483455500,2.29545556640625,0.3398281671822071,0.09159662594050169,0.34576764023378487
1760107085493521400,2.305521484375,0.19089725038707256,-0.024264964945614337,0.3143937200658023
1760107085503587600,2.315587646484375,-0.10381342569589615,-0.010724515371024607,0.20820563766043632
1760107085513653500,2.325653564453125,-0.37589667490720746,0.08706336642503738,0.08601181154549122
1760107085523718400,2.335718505859375,-0.534383940076828,0.1857417673200369,0.05040909470133483
1760107085533784300,2.345784423828125,-0.5050818577468394,0.2287985264971852,0.060675454508699475
1760107085543850500,2.3558505859375,-0.28945874690413476,0.2000631381392479,0.0965531889019534
1760107085553916400,2.36591650390625,-0.03973988971412182,0.09573971709460019,0.09171455323174595
1760107085563982600,2.375982666015625,0.17711539327204226,-0.02468348261862993,0.04936020670291036
1760107085574048500,2.386048583984375,0.273814603048563,-0.13176497019976377,0.0018059534434229135
1760107085584114400,2.396114501953125,0.2376946573972702,-0.19779314738065004,0.008085179843381047
1760107085594180400,2.406180419921875,0.15348668040335178,-0.203916014175117,0.01009385278467089
1760107085604246300,2.416246337890625,0.042595279145240784,-0.15329086557030677,0.004425305628962814
1760107085614311400,2.4263115234375,-0.055638300591707227,-0.08231500285416841,0.0008546440679579973
1760107085624377600,2.436377685546875,-0.10716624325513839,-0.02520546066612005,0.024948599828220903
1760107085634443500,2.446443603515625,-0.15084581050574777,-0.005316226586699485,0.06697517570741474
1760107085644509400,2.456509521484375,-0.1573030238211155,0.014197452178597449,0.10780399316940456
1760107085654575400,2.466575439453125,-0.14356266776025295,0.02231324635595083,0.13481971812788396
1760107085664641300,2.476641357421875,-0.17176701798141,0.026871055790781972,0.17249240964651108
1760107085674707500,2.48670751953125,-0.26993396222293375,0.06284896262288094,0.17292174097448587
1760107085684773400,2.4967734375,-0.3440636127948761,0.08935060057938099,0.1407743156833574
1760107085694839600,2.506839599609375,-0.3612894728839397,0.09917524450123309,0.07623122596107423
1760107085704904400,2.516904541015625,-0.3005740151584148,0.07843436202853918,0.05936407964918762
1760107085714970400,2.526970458984375,-0.13522270943820475,0.037214170628786084,0.06358885773736983
1760107085725036300,2.537036376953125,0.01403320152759552,0.022491233271360395,0.12290350875426083
1760107085735102500,2.5471025390625,0.051770519247651095,0.04347966076433658,0.17918661005552858
1760107085745168400,2.55716845703125,-0.044859716945886606,0.06333908422738313,0.21250256766937672
1760107085755234600,2.567234619140625,-0.20351707798540591,0.10468290200680494,0.22840243985168635
1760107085765300500,2.577300537109375,-0.27954700922071934,0.1452946061193943,0.139237132711336
1760107085775366700,2.58736669921875,-0.2544657594561577,0.14886545034348964,0.03897570040859282
1760107085785431300,2.597431396484375,-0.17524141609370708,0.09535451716929673,0.014467610889486967
1760107085795497500,2.60749755859375,-0.0068301382809877395,0.05698007058948278,0.022801760525256395
1760107085805563400,2.6175634765625,0.17349837181866168,0.08353548455983399,0.05997512421961874
1760107085815629600,2.627629638671875,0.18881401437222955,0.08830927483290434,0.09975881654284893
1760107085825695500,2.637695556640625,0.07653378910422325,0.14243249468654393,0.18956673243567346
1760107085835761700,2.64776171875,-0.04150339225530624,0.17242548189014195,0.20805256599057464
1760107085845827300,2.657827392578125,-0.16615268523097038,0.1649167136952281,0.17475366910938173
1760107085855893200,2.667893310546875,-0.22285189305245875,0.13807079234570263,0.11417802171334623
1760107085865959400,2.67795947265625,-0.21821780351102352,0.1046887472257018,0.01831610301118344
1760107085876024600,2.688024658203125,-0.19122399812340735,0.07218143911361694,0.0012368483185768127
1760107085886090500,2.698090576171875,-0.22310966720581055,0.041809389464557166,0.02062368583381176
1760107085896156700,2.70815673828125,-0.2312280917316675,0.040836160518229005,0.010383154587447643
1760107085906222300,2.718222412109375,-0.23548984082937238,0.03409779217392206,-0.0016001652056351304
1760107085916288300,2.728288330078125,-0.21586685647070405,0.020703180810809133,-0.02474631872177124
1760107085926354400,2.7383544921875,-0.1372422325670719,0.014791910940408706,-0.07050992570482194
1760107085936420400,2.74842041015625,-0.031334464940428734,-0.005576338827610015,-0.11408968584276735
1760107085946486500,2.758486572265625,0.05036240601539611,-0.04381780667752027,-0.10530943640731275
1760107085956552400,2.768552490234375,0.052181438136100766,-0.06031389118731022,-0.0734476231245324
1760107085966617300,2.778617431640625,0.004434767577052116,-0.05154284797161817,-0.05092201265953481
1760107085976683300,2.788683349609375,-0.06679916155338286,-0.026246201890707015,-0.02758271119147539
1760107085986749400,2.79874951171875,-0.18356091614961623,0.011910802546143531,-0.0021725217334926127
1760107085996815400,2.8088154296875,-0.2705915493488312,0.052883448925614356,0.009249693578109145
1760107086006881500,2.818881591796875,-0.28665596444308755,0.07413578805178403,-0.00022894991766661405
1760107086016947500,2.828947509765625,-0.21334172190725803,0.07395224817842244,-0.005183357454650104
1760107086027013600,2.839013671875,-0.07668284218609332,0.051039866885542864,-0.009120075849071145
1760107086037079300,2.849079345703125,0.09575696049034595,0.003305763547122478,-0.02457702656947076
1760107086047144400,2.85914453125,0.22571078961491584,-0.017886369824409484,-0.03253474410828203
1760107086057210400,2.86921044921875,0.2762923913389444,-0.019678221677243708,-0.04667184440176934
1760107086067276500,2.879276611328125,0.22948329389095304,-0.020976737055182455,-0.057435449674166736
1760107086077342500,2.889342529296875,0.12701251497566698,0.011714987713098526,-0.03727459557913244
1760107086087408600,2.89940869140625,-0.004302081108093261,0.051942368683218956,0.02349708584565669
1760107086097474300,2.909474365234375,-0.12043781276047229,0.08086684987246989,0.06414050027076154
1760107086107540500,2.91954052734375,-0.2187766064375639,0.07708470098525286,0.10598843164741992
1760107086117606400,2.9296064453125,-0.13808511313199995,0.08573708625733852,0.14982329905759542
1760107086127671000,2.939671142578125,0.05940262156128883,0.048452188479900356,0.12294603272173553
1760107086137737000,2.949737060546875,0.0365513228058815,-0.05390227057933807,0.15943539620731026
1760107086147803100,2.95980322265625,0.000367079746723175,-0.1079413192808628,0.1118007346553728
1760107086157869000,2.969869140625,-0.07801496757268905,-0.11675678616017103,0.07182959346864372
1760107086167935200,2.979935302734375,-0.21463526884913442,-0.1148474454075098,0.0779531909154728
1760107086178001000,2.9900009765625,-0.35049686071276664,-0.07395955470204353,0.12939371102377772
1760107086188067000,3.000067138671875,-0.44382045657634733,-0.017556114956736563,0.20155472840387373
1760107086198133000,3.010133056640625,-0.48218262819647784,0.05062339503914118,0.2142381227577105
1760107086208199000,3.020198974609375,-0.4498246654272079,0.042047874395549294,0.17602580793704836
1760107086218264000,3.03026416015625,-0.3681657883942127,-0.005173603245615959,0.13157529284656047
1760107086228330200,3.040330322265625,-0.24783143600821494,-0.060033320680260654,0.08641520471461117
1760107086238396000,3.05039599609375,-0.17795593574941157,-0.1016366661787033,0.05766527637466788
1760107086248462000,3.060462158203125,-0.14613339503109454,-0.12045008772015571,0.058830813022702926
1760107086258528000,3.070528076171875,-0.1668874292463064,-0.09622019408792257,0.10019333550259471
1760107086268594000,3.080593994140625,-0.21504852582514286,-0.06431698934882879,0.12876966084130106
1760107086278660000,3.09066015625,-0.22323358584642408,-0.025533961968123912,0.11552541773431002
1760107086288726000,3.10072607421875,-0.19152561141848562,-0.01834405046403408,0.081136862452887
1760107086298792200,3.110792236328125,-0.12553659720420837,-0.04250204790383577,0.05532945383824408
1760107086308857000,3.120857177734375,-0.03356850760281086,-0.05156301397681236,0.04397445854395628
1760107086318923000,3.130923095703125,-0.00015840543210506437,-0.05732698433101177,0.04297404932975769
1760107086328989000,3.140989013671875,0.012879939839243888,-0.04879384152442216,0.03214351630099117
1760107086339055000,3.15105517578125,-0.011990882045030593,-0.029503157860040662,0.051627932439185675
1760107086349121000,3.16112109375,-0.08831015161573887,0.007667758148908615,0.07826488721314817
1760107086359187200,3.171187255859375,-0.14985329233705996,0.05297317303568125,0.08194068964906036
1760107086369252900,3.1812529296875,-0.16338848121464253,0.08680266966223717,0.09380659360755235
1760107086379319000,3.191319091796875,-0.13064707208573817,0.09487667052447796,0.1421225154219195
1760107086389384000,3.201384033203125,-0.09723170921802521,0.09775573309212922,0.15961210448108612
1760107086399450000,3.2114501953125,-0.08421148412525653,0.10093144051879643,0.2027535827996209
1760107086409516000,3.22151611328125,-0.1103986493051052,0.11267331623882054,0.25919534526132043
1760107086419582200,3.231582275390625,-0.115078331553936,0.16515549088716505,0.2563608524877578
1760107086429648000,3.24164794921875,-0.05761106196939945,0.16757015081346033,0.22865341893807054
1760107086439714000,3.251714111328125,0.001713233658671379,0.11958031914830207,0.18547588292546568
1760107086449780000,3.261780029296875,0.05289747745096683,0.042156303206086154,0.14032109202314166
1760107086459846100,3.27184619140625,0.08482640115320682,0.010514379751682281,0.0949660658409819
1760107086469911000,3.2819111328125,0.07144844866394996,-0.014958499678969383,0.03674841628056019
1760107086479977200,3.291977294921875,-0.024467501780390737,-0.007894552642107009,0.06421502681169658
1760107086490043000,3.30204296875,-0.12087561965584755,0.04586392555236816,0.11546473705563694
1760107086500109000,3.312109130859375,-0.19018413368165493,0.12772533942013978,0.16158577917423098
1760107086510175000,3.322175048828125,-0.22674656240344046,0.1640890306994319,0.2109632658055052
1760107086520241000,3.332240966796875,-0.2056090818285942,0.16666677223294973,0.19154935762025416
1760107086530307000,3.34230712890625,-0.12622574851214885,0.11338847877085208,0.13962225957140326
1760107086540373000,3.352373046875,-0.035948096215724944,0.052823535431921476,0.07030293189063667
1760107086550439200,3.362439208984375,0.05873100591003894,0.02221796928793192,0.01910232148543
1760107086560504000,3.372504150390625,0.11466624362170695,-0.008041852158308029,0.013276428343541919
1760107086570570000,3.382570068359375,0.07487082432806491,-0.006117021575570106,0.05388754793424159
1760107086580636000,3.392635986328125,-0.03758534202873707,0.006541092206537723,0.07240154813770204
1760107086590702000,3.4027021484375,-0.16619652437269686,-0.0027007833912968634,0.09623199412357061
1760107086600768000,3.41276806640625,-0.26294717207551,-0.0006394669473171234,0.07093121985681354
1760107086610834200,3.422834228515625,-0.298358092674613,0.019158581717312335,0.06732431793864815
1760107086620900000,3.432900146484375,-0.278607682543993,0.044915246525406835,0.05431275107637047
1760107086630966000,3.442966064453125,-0.20025895297229288,0.06336275736391545,0.04276701898295432
1760107086641032000,3.453031982421875,-0.09652443773150443,0.03433656936585903,-0.002914754935540259
1760107086651097000,3.46309716796875,0.003277414235472679,-0.02755085474848747,-0.02901099042892456
1760107086661163000,3.4731630859375,0.034714170506596566,-0.079417527846992,0.006279409063048661
1760107086671229200,3.483229248046875,0.04721709372699261,-0.0937745545014739,0.028407909969240426
1760107086681294800,3.493294921875,-0.007456745746731758,-0.09138853614777326,0.025977577549777923
1760107086691361000,3.503361083984375,-0.11520692636966705,-0.06090571960061788,0.05468173051923513
1760107086701427000,3.513427001953125,-0.17838906646966934,-0.0244321382060647,0.0947878962624818
1760107086711493000,3.5234931640625,-0.21760580909252167,0.023313071048259734,0.11766242976300417
1760107086721559000,3.53355908203125,-0.21723054603934286,0.03917085765451193,0.12845314223803578
1760107086731624200,3.543624267578125,-0.20190555113553998,0.03683130879104137,0.1502098872223869
1760107086741689900,3.55368994140625,-0.1766255639284849,0.011343816313147544,0.16278832336440682
1760107086751756000,3.563756103515625,-0.12765607357621192,0.004254734835028648,0.15424849508870392
1760107086761822000,3.573822021484375,-0.10597849477529525,0.0031073183655738828,0.12127440971508621
1760107086771888000,3.58388818359375,-0.13640578174293042,0.004144552458822727,0.10156601209528744
1760107086781954000,3.5939541015625,-0.15113924049437044,0.03423135542571545,0.07238222238272428
1760107086792020000,3.60402001953125,-0.12873802359402178,0.059146308712661265,0.019532858389802277
1760107086802086100,3.614086181640625,-0.046017070287466044,0.07277385204881429,0.015604907823726534
1760107086812151000,3.624151123046875,0.015506196689605713,0.07848492317199707,0.05010521638393402
1760107086822217000,3.634217041015625,-0.00811199478507042,0.06384820279330015,0.10673274720869957
1760107086832283100,3.644283203125,-0.06233925953507423,0.08049450942873955,0.11766604649219661
1760107086842349000,3.65434912109375,-0.08402619068622588,0.12639730568677185,0.12926307038143275
1760107086852415000,3.6644150390625,-0.03683832305371761,0.13744506166279316,0.10507986543513834
1760107086862481200,3.674481201171875,-0.0013046528577804564,0.11263064614087342,0.07321085522659122
1760107086872547000,3.684547119140625,0.05175649072229862,0.07345043613612652,0.024744272895157335
1760107086882613000,3.694613037109375,0.0670113429993391,0.02772913392484188,-0.010892528881691396
1760107086892679000,3.704678955078125,0.024892449194192885,-0.02318330718874931,-0.03166797121111303
1760107086902744000,3.714744140625,-0.06485270366072654,-0.03928600846678018,-0.017633564107120036
1760107086912810000,3.72481005859375,-0.1777501840442419,0.0026098902374505997,0.026778372538648544
1760107086922876200,3.734876220703125,-0.20233166759312152,0.06768325091153383,0.06568002133034169
1760107086932942000,3.744942138671875,-0.20201953290402888,0.08746025678813457,0.07778404489364475
1760107086943008000,3.755008056640625,-0.1233610067307949,0.06655892305672169,0.04357932174652815
1760107086953074000,3.765073974609375,-0.049506665968894956,0.0005009352594614029,0.012544314676709472
1760107086963140000,3.77514013671875,-0.016637246546149252,-0.034174364541471006,-0.010115005170553922
1760107086973206000,3.7852060546875,-0.00016015899777412413,-0.04592296226322651,0.00403075335342437
1760107086983272200,3.795272216796875,-0.037191374275088306,-0.02033347071558237,0.054422677724249656
1760107086993337000,3.805337158203125,-0.08273030565679072,0.010962123519182205,0.12290683322250842
1760107087003403000,3.815403076171875,-0.12131342655122279,0.046937692263722415,0.1369201610058546
1760107087013469000,3.825468994140625,-0.12141104170680045,0.06098696814328432,0.11177709805145859
1760107087023535000,3.83553515625,-0.10053601146042346,0.04549246189147234,0.06232731336895376
1760107087033601000,3.84560107421875,-0.12054770287573337,-0.004531213688850402,0.0395865623159334
1760107087043667200,3.855667236328125,-0.1733878971815109,-0.011695406229794024,0.033011056383140384
1760107087053733000,3.865733154296875,-0.21043957072496414,0.027549101182818413,0.027484840307570993
1760107087063799000,3.875799072265625,-0.21265257059931753,0.07995470346361398,0.060544886931590734
1760107087073864000,3.885864013671875,-0.20791618972718715,0.08970862023681402,0.0640497167147696
1760107087083930000,3.89593017578125,-0.21676117496192454,0.05295271476954221,0.05240348338894546
1760107087093996000,3.90599609375,-0.1703419536143541,0.019916122086346147,0.04030000781491398
1760107087104062200,3.916062255859375,-0.1070265425235033,0.013654431343078612,0.0033452553072944283
1760107087114128100,3.926128173828125,-0.039265842461585994,0.007324351538717746,0.01745437161531299
1760107087124194300,3.9361943359375,-0.02262450426220894,-0.006261398482322693,0.081991506520845
1760107087134260500,3.946260498046875,-0.01793313157558441,0.014373685528337954,0.1387268085690215
1760107087144326400,3.956326416015625,-0.04481704684793949,0.04279869276285171,0.1414365059191361
1760107087154391600,3.9663916015625,-0.12657061642706394,0.04461480227410793,0.11055961202047765
1760107087164457200,3.976457275390625,-0.20730653339624402,0.024801848301291465,0.055766018624603744
1760107087174523400,3.9865234375,-0.22841946405172348,0.014561901576817035,-0.03941957171857357
1760107087184589300,3.99658935546875,-0.2217553299874067,-0.006074059216678142,-0.10768080518115311
1760107087194655500,4.006655517578125,-0.16929916656315325,-0.013262217155098914,-0.07423406079448759
1760107087204721400,4.016721435546875,-0.07574585359692573,-0.00594341857433319,0.030705117528326806
1760107087214787600,4.02678759765625,0.00010813654959201812,0.024534137275815007,0.1349630721213296
1760107087224853500,4.036853515625,0.021928338691592216,0.04052198000252247,0.1998701728504151
1760107087234919400,4.04691943359375,-0.004483282893896103,0.04441752613633871,0.2289198878545314
1760107087244984300,4.056984375,-0.04470949482023716,0.0395291695728898,0.20099716758634895
1760107087255050500,4.067050537109375,-0.08733809171319007,0.03094634240567684,0.16277356418669223
1760107087265116400,4.077116455078125,-0.12260171279609203,0.03498597318530083,0.1191295797061175
1760107087275182600,4.0871826171875,-0.0910579890191555,0.04170826717764139,0.06084299309533089
1760107087285248500,4.09724853515625,-0.05356733953654766,0.025362989315390584,0.017837343050912023
1760107087295314400,4.107314453125,-0.06666121438741683,0.007552022814750671,0.01662979389205575
1760107087305380400,4.11738037109375,-0.10128419947922229,0.00331657720208168,0.05052738731876015
1760107087315446300,4.1274462890625,-0.1252694707006216,0.11353928541839121,0.09647124623954295
1760107087325511400,4.137511474609375,-0.23323767798840997,0.17256576714366673,0.15087521926332265
1760107087335577600,4.14757763671875,-0.36449382188320156,0.17316197947114706,0.158737659734115
1760107087345643500,4.1576435546875,-0.38952655633091926,0.19797493368834257,0.16186225802805274
1760107087355709400,4.16770947265625,-0.31435879488289353,0.19152648820132015,0.11630831174030899
1760107087365775400,4.177775390625,-0.14058569777607918,0.12818302005976437,0.05552563399747014
1760107087375841300,4.18784130859375,0.060327335190773004,0.05870528694689273,0.017894626196101306
1760107087385907500,4.197907470703125,0.19923720870912073,-0.005856909334659576,-0.04617006889209151
1760107087395973400,4.207973388671875,0.21249825682044027,-0.034788112525641915,-0.04692512504309416
1760107087406039600,4.21803955078125,0.10189444033205508,-0.020013444980978963,-0.025788850044645366
1760107087416104200,4.228104248046875,-0.043240591311454774,0.05276216063350439,0.027640615391172466
1760107087426170400,4.23817041015625,-0.10955635326206684,0.14286007244884966,0.073197265092656
1760107087436236300,4.248236328125,-0.06945756710767746,0.1665896153435111,0.11193020625393837
1760107087446302500,4.258302490234375,0.005308043280243873,0.12255962722003459,0.15681995301190763
1760107087456368400,4.268368408203125,0.06307517259418964,0.06659867054522037,0.17976788054220377
1760107087466434600,4.2784345703125,0.09208031780421733,0.04204670535176992,0.16236465459223837
1760107087476500500,4.28850048828125,0.02518237205147743,0.02021189016252756,0.1382182379923761
1760107087486566400,4.29856640625,-0.06320844358503819,0.025574001717567442,0.12218845582008361
1760107087496631300,4.30863134765625,-0.1008785412877798,0.05254910240471363,0.1203811872024089
1760107087506697500,4.318697509765625,-0.10153729745745659,0.0770350166246295,0.13263634620681405
1760107087516763400,4.328763427734375,-0.05632160668075084,0.05235270304977894,0.12479969776440411
1760107087526829600,4.33882958984375,-0.04027823437452316,0.01063596030473709,0.08965100829806179
1760107087536895500,4.3488955078125,-0.01675765805542469,-0.004598141445219517,0.08209759724382311
1760107087546961400,4.35896142578125,-0.059768532264232635,-0.007007832935452461,0.05718651641439646
1760107087557027300,4.36902734375,-0.13159399754703044,-0.009105097475647925,0.040683782968111336
1760107087567093200,4.37909326171875,-0.2217430550277233,-0.03818330792188644,0.019911847770027816
1760107087577159400,4.389159423828125,-0.3156950119227171,-0.07391922269165516,0.008685008900053798
1760107087587224600,4.399224609375,-0.3600228139489889,-0.06190320620536804,0.01953800948895514
1760107087597290500,4.40929052734375,-0.33352819025516506,-0.03965776438862085,0.025025172195769847
1760107087607356400,4.4193564453125,-0.2641974643975496,-0.03181406515091657,0.04149853341709822
1760107087617422300,4.42942236328125,-0.1880722560942173,-0.03272796512544155,0.05710428149104118
1760107087627488300,4.43948828125,-0.11148702906370163,-0.040679800912737846,0.05368157703336328
1760107087637554400,4.449554443359375,-0.09958557886779308,-0.0664908262565732,0.0074205053895711895
1760107087647620400,4.459620361328125,-0.13333704182207584,-0.08114040611684321,0.004280782591737807
1760107087657686500,4.4696865234375,-0.18798983850777148,-0.05977379296123981,0.0689812548328191
1760107087667751400,4.47975146484375,-0.2205231578439474,-0.009845978970825672,0.11812453084941953
1760107087677817300,4.4898173828125,-0.235742354285717,0.03891308350116014,0.14146777784023434
1760107087687883300,4.49988330078125,-0.21796295196712015,0.07282675127983093,0.14712960299421102
1760107087697949400,4.509949462890625,-0.19535364527404306,0.08568184893876314,0.12747333742044864
1760107087708015400,4.520015380859375,-0.11078969444930553,0.1050201711371541,0.11037238235268741
1760107087718081500,4.53008154296875,0.006842413240671158,0.12669511958956717,0.07711911471150815
1760107087728147500,4.5401474609375,0.09599076924622059,0.11178484296649693,0.02816591790691018
1760107087738213400,4.55021337890625,0.11068448050916194,0.06738339118212461,-0.08933554914072156
1760107087748278300,4.5602783203125,-0.024675007051229474,-0.005982289279997348,-0.26022958367988464
1760107087758344400,4.570344482421875,-0.2520809101462364,-0.07094546757787466,-0.43187801678292453
1760107087768410400,4.580410400390625,-0.4291407738387584,-0.07606734063625335,-0.48878776208255437
1760107087778476500,4.5904765625,-0.48545653530061245,-0.07023965739607811,-0.4239300899857655
1760107087788542500,4.60054248046875,-0.39358781442046165,-0.03475479477792978,-0.27962608407260847
1760107087798608400,4.6106083984375,-0.1969593269050121,-0.023703531670570373,-0.08630715949656441
1760107087808674300,4.62067431640625,-0.038681320571899415,-0.031022037990391254,0.12041583839068189
1760107087818740500,4.630740478515625,0.05662146641016006,-0.012869418445229529,0.2849786058153957
1760107087828806400,4.640806396484375,0.06777940476238727,0.019448212313652038,0.33764592777229846
1760107087838871600,4.65087158203125,0.07852817779183387,0.013638649252057074,0.3129651485674083
1760107087848937500,4.6609375,0.12415244936943054,-0.016970131762325764,0.24032076811715958
1760107087859003400,4.67100341796875,0.1740033987313509,-0.09118073861598967,0.183272838189546
1760107087869069300,4.6810693359375,0.16292378631234167,-0.14168372214585542,0.1556373008322902
1760107087879135500,4.691135498046875,0.11525485716462135,-0.11820727722942828,0.18998057393357157
1760107087889201400,4.701201416015625,0.09113923756182193,0.010340484489500522,0.24993054544562474
1760107087899267300,4.711267333984375,0.04411328249275684,0.14090952290296554,0.2932786705184728
1760107087909333500,4.72133349609375,0.01154138471186161,0.20458266139030457,0.3272735137745738
1760107087919398400,4.7313984375,0.03715454939603805,0.20496581548899412,0.30795148512385784
1760107087929464300,4.74146435546875,0.12888473858833313,0.1722679532408714,0.24308349256245418
1760107087939530500,4.751530517578125,0.19258008890748024,0.13777502426952123,0.1493236424397677
1760107087949596400,4.761596435546875,0.16451134776473045,0.08460136022567749,0.09079762104991823
1760107087959662300,4.771662353515625,0.03685235157907009,0.06633271308541297,0.06984112306516617
1760107087969728500,4.781728515625,-0.11677461407780647,0.12021160278916358,0.09435695749931036
1760107087979794400,4.79179443359375,-0.21352759986817835,0.183050336278975,0.14013130507208407
1760107087989860400,4.8018603515625,-0.28826924485862254,0.20873364358991384,0.18991919913515448
1760107087999925200,4.81192529296875,-0.33330256480574605,0.20930472147613763,0.19867084353063255
1760107088009991400,4.821991455078125,-0.30731647515594956,0.17940321194827555,0.15789883428979665
1760107088020057300,4.832057373046875,-0.2501817985266447,0.11995908933281897,0.09219331319201737
1760107088030123500,4.84212353515625,-0.21972645450830458,0.042541503131389616,0.01655621719919145
1760107088040189400,4.852189453125,-0.19731997691094874,-0.01733107402920723,-0.07654905973859132
1760107088050255400,4.86225537109375,-0.1550713192462921,-0.075128013959527,-0.14873367718998343
1760107088060321300,4.8723212890625,-0.04843815995454788,-0.13132131808549166,-0.14571513308640568
1760107088070387500,4.882387451171875,0.04980711022019386,-0.17897066574990747,-0.1052497055767104
1760107088080453400,4.892453369140625,0.07284720954596996,-0.22797698098123073,-0.08370185410268605
1760107088090518500,4.9025185546875,0.00776946495771408,-0.24189386265277862,-0.0532402264740318
1760107088100584400,4.91258447265625,-0.17695640331804752,-0.19230010292232036,-0.04091919915918261
1760107088110650400,4.922650390625,-0.3787888892173767,-0.11214227810204029,0.0052127296796068544
1760107088120716300,4.93271630859375,-0.5013035082519054,-0.03689677524268627,0.027023835199698806
1760107088130782500,4.942782470703125,-0.5007248315811157,0.015623685589432716,0.03969955770373344
1760107088140848400,4.952848388671875,-0.38420682261288164,0.014207096789777277,0.028713724515400826
1760107088150914300,4.962914306640625,-0.22181845835149286,0.0037029461711645126,0.03447502798847854
1760107088160980500,4.97298046875,-0.06546294451355934,0.018362462903559206,0.0425090256338939
1760107088171045400,4.98304541015625,0.03199906632900238,0.053253743542730804,0.04184760258309543
1760107088181111300,4.993111328125,0.07957038032114505,0.08831161292046308,0.09917199309822171
1760107088191177500,5.003177490234375,0.09920447059571742,0.12288608269542454,0.16620722842980176
1760107088201243400,5.013243408203125,0.13031740173995493,0.14077654417306185,0.2411161562785506
1760107088211309300,5.023309326171875,0.1591366689890623,0.16922200967371462,0.24711335086673497
1760107088221375500,5.03337548828125,0.13916940123736857,0.16466449249982834,0.21734328569881617
1760107088231441400,5.04344140625,0.04799976853728294,0.15237959594428538,0.22285887078251687
1760107088241507600,5.053507568359375,-0.07446808874607086,0.133782447502017,0.22757055560480802
1760107088251572500,5.063572509765625,-0.17484218764305115,0.15415741927176713,0.22722579728774725
1760107088261638400,5.073638427734375,-0.2547773096233606,0.1739317947998643,0.19958280727639793
1760107088271704300,5.083704345703125,-0.2696849558979273,0.14586422270089386,0.186249534179084
1760107088281770500,5.0937705078125,-0.24353753820657728,0.10049947884231805,0.1295758991902694
1760107088291836400,5.10383642578125,-0.1912999859690666,0.02536328157633543,0.08266228192187845
1760107088301902300,5.11390234375,-0.14296820899844168,-0.04738543603122234,0.041846360474079844
1760107088311968300,5.12396826171875,-0.08311784366965293,-0.09015519496053456,0.041573133023269475
1760107088322034400,5.134034423828125,-0.0446031118363142,-0.09764671975970268,0.07217858956940472
1760107088332100400,5.144100341796875,-0.06246785435080528,-0.09157938254475594,0.1276686773294583
1760107088342165500,5.15416552734375,-0.113356914588809,-0.03799596865624189,0.12806450824663043
1760107088352231400,5.1642314453125,-0.16601824519634245,0.0009504325926303862,0.07580715533010661
1760107088362297300,5.17429736328125,-0.20842998446822164,0.008428805649280547,0.034760749594680965
1760107088372363300,5.18436328125,-0.19445581965148448,-0.02391805120408535,-0.01952916859537363
1760107088382429400,5.194429443359375,-0.10328209529817103,-0.05097235460728407,-0.05462441084142774
1760107088392495400,5.204495361328125,0.0225695592045784,-0.06431757387071847,-0.02820880720056593
1760107088402561500,5.2145615234375,0.10065817653536796,-0.05786445220857858,0.022238865945488212
1760107088412627500,5.22462744140625,0.1037719246417284,-0.035222704550623894,0.06306534531991928
1760107088422692400,5.2346923828125,0.015579846447706222,-0.008162263667583465,0.08611443166974932
1760107088432758300,5.24475830078125,-0.07923661832213401,0.04036240552663803,0.10440963802337645
1760107088442824400,5.254824462890625,-0.1174526594698429,0.07109802779108286,0.09348707932960242
1760107088452890400,5.264890380859375,-0.12642623952031135,0.07959113084822893,0.09557440699767321
1760107088462956500,5.27495654296875,-0.09894961905181407,0.08309680088162422,0.10168291647322475
1760107088473022500,5.2850224609375,-0.04536240577101707,0.07865823391228914,0.08493727764915675
1760107088483088400,5.29508837890625,-0.002836100208759308,0.08166735260039568,0.06976937300320714
1760107088493154600,5.305154541015625,-0.06278232712745666,0.05551029029786587,0.05526230688616633
1760107088503219500,5.315219482421875,-0.1825251433610916,0.0356318698734045,0.034309937087260184
1760107088513285400,5.325285400390625,-0.28638708437383176,0.04848989014178514,0.04603153720423579
1760107088523351600,5.3353515625,-0.2876964134067297,0.09911971492171287,0.09143493257276714
1760107088533417500,5.34541748046875,-0.22038053450286388,0.11020604934245347,0.1512713059088215
1760107088543483400,5.3554833984375,-0.126934189042449,0.08846884930878877,0.1917772480919957
1760107088553549600,5.365549560546875,-0.050509705531597136,0.04654343224912882,0.15584372839089483
1760107088563615200,5.375615234375,0.00009878419935703278,0.019494974064826965,0.10469488470554351
1760107088573681400,5.385681396484375,0.015102292063832281,0.008517360715568065,0.03978387498632073
1760107088583746600,5.39574658203125,-0.006245031869411468,-0.016461889979243277,0.007417655845358967
1760107088593812500,5.4058125,-0.08631459388434887,-0.018953414534032344,0.007376848910935222
1760107088603878400,5.41587841796875,-0.1614408542782068,0.00815203453451395,0.013110679855197668
1760107088613944600,5.425944580078125,-0.18396657434105873,0.04643880283087492,0.05560618842039257
1760107088624010200,5.43601025390625,-0.10555646997094154,0.05602642312645912,0.07426167945377528
1760107088634076400,5.446076416015625,0.013198504269123076,0.010850772099196911,0.10355075617171823
1760107088644142300,5.456142333984375,0.044029111340641976,-0.06434387735575438,0.11555029644723981
1760107088654208500,5.46620849609375,0.019925766697525975,-0.0712920890584588,0.07231701165940613
1760107088664274400,5.4762744140625,-0.0780301651418209,-0.07426029121428727,0.035615247532166536
1760107088674339300,5.48633935546875,-0.23084756798148154,-0.06634177317470312,0.04522347222436219
1760107088684405200,5.4964052734375,-0.3434522028982639,-0.011989420740306376,0.10697086681351065
1760107088694471400,5.506471435546875,-0.4545937795251608,0.056392918351292606,0.13295089204870164
1760107088704537300,5.516537353515625,-0.48644846894741056,0.12491817304491996,0.11594097626525908
1760107088714603500,5.526603515625,-0.4113876750051975,0.15083207424134015,0.05782978275399655
1760107088724669400,5.53666943359375,-0.23334230740666387,0.11971154431253671,-0.015597637832723558
1760107088734735600,5.546735595703125,-0.02893324901759624,0.07498422157466411,-0.01205620236620307
1760107088744801500,5.556801513671875,0.15749123986959457,0.04984685770869255,0.018735168673470616
1760107088754866400,5.566866455078125,0.25122575462162494,0.0539794274687767,0.07241817047894
1760107088764932400,5.576932373046875,0.1847124242722988,0.07594576008319855,0.16296386259440332
1760107088774998500,5.58699853515625,0.0411216994613409,0.10810352410525083,0.2489431966423988
1760107088785064400,5.597064453125,-0.14727964245676994,0.1424471077337861,0.2746078357854858
1760107088795130400,5.60713037109375,-0.2609972070515156,0.20769056427776814,0.1798531111402437
1760107088805196500,5.617196533203125,-0.22876959266364574,0.1938248282715678,0.0819868303457275
1760107088815262200,5.62726220703125,-0.12523732199668883,0.12711159143596887,0.013256225805729627
1760107088825328400,5.637328369140625,-0.034337738409638406,0.046912850083410736,-0.03785177441257983
1760107088835393500,5.6473935546875,-0.00532908606827259,0.022639409570395945,-0.03654675622861832
1760107088845459500,5.65745947265625,-0.0045639469146728515,0.021147417446970938,-0.012624869099631906
1760107088855525400,5.667525390625,0.006281272226572036,0.031815234194695945,0.03684248777218163
1760107088865591600,5.677591552734375,0.03958265332579612,0.01322188514471054,0.06728303608018904
1760107088875657200,5.6876572265625,0.05275836124122142,-0.013261340372264384,0.08261033253893256
1760107088885723400,5.697723388671875,0.013643909949064253,-0.04293400958031416,0.06669051354713737
1760107088895789300,5.707789306640625,-0.0541144520252943,-0.056065878354012964,0.06757295893747359
1760107088905855500,5.71785546875,-0.19076222583055494,-0.015242577317357063,0.04652743096239865
1760107088915920400,5.72792041015625,-0.2833417253285646,0.02335164949297905,0.06758600108213722
1760107088925986600,5.737986572265625,-0.31006665064692496,0.0710834147438407,0.1419630140112713
1760107088936052200,5.74805224609375,-0.2997550999909639,0.09370879578888416,0.17537439482361078
1760107088946118400,5.758118408203125,-0.2623041979968548,0.09239683640748261,0.16638802835680544
1760107088956184300,5.768184326171875,-0.2221919678390026,0.07161386835873126,0.09590550211556255
1760107088966250500,5.77825048828125,-0.16614976262152195,0.041571781316399575,0.013409845464862883
1760107088976316400,5.78831640625,-0.12268705299198626,0.01669920586645603,-0.03368362188246101
1760107088986382600,5.798382568359375,-0.08406886078417301,0.007840192106366157,-0.011092070041783154
1760107088996447200,5.808447265625,-0.051174891442060465,0.02061228765696287,0.07141122192610055
1760107089006513400,5.818513427734375,-0.03471475502848625,0.0375640069797635,0.10892167208772152
1760107089016579300,5.828579345703125,-0.038085692766308785,0.05074994402825832,0.13882299895249306
1760107089026645500,5.8386455078125,-0.06562368803322315,0.04894552495479584,0.10629585362877696
1760107089036711400,5.84871142578125,-0.08389642682671547,0.03847644564956426,0.05447824383638799
1760107089046777600,5.858777587890625,-0.06993395244777202,0.043864860689640045,0.0425461062412709
1760107089056843500,5.868843505859375,-0.022118308305740356,0.04876286186426878,0.08899002363868057
1760107089066909400,5.878909423828125,0.014077625191211699,0.06414250956475734,0.1395476234326139
1760107089076974300,5.888974365234375,0.04893032738566398,0.0658089814722538,0.14471443161126224
1760107089087040500,5.89904052734375,0.042563714963197705,0.049883390326797956,0.12802622206285594
1760107089097106400,5.9091064453125,-0.016298223850131036,0.029397359398007392,0.10622147321831435
1760107089107172600,5.919172607421875,-0.08028349702656269,0.016627894195914268,0.08600245919525623
1760107089117238500,5.929238525390625,-0.11410802521705626,0.012430150245130061,0.07174224397875369
1760107089127304700,5.9393046875,-0.15993980206549166,0.016062953789532184,0.0677600059421733
1760107089137371000,5.949370849609375,-0.21375497888326644,0.03998714247345924,0.07523976723831147
1760107089147436800,5.959436767578125,-0.24968203231096267,0.08411825288385152,0.049166729957424105
1760107089157501700,5.969501708984375,-0.3138765643239021,0.1010831239491701,0.05365114536248147
1760107089167567600,5.979567626953125,-0.3660217621028423,0.11587328132390975,0.049708947075344616
1760107089177633800,5.9896337890625,-0.34892683491706844,0.11873247014731168,0.06363832290228456
1760107089187699700,5.99969970703125,-0.257400643864274,0.09745908823311328,0.05627995949611068
1760107089197766000,6.009765869140625,-0.141333885794878,0.05015782335400581,0.046337132554687556
1760107089207831800,6.019831787109375,-0.013451602247357367,0.008085691300034522,0.02844506364185363
1760107089217898000,6.02989794921875,0.06094342126250267,-0.02130553061813116,0.06139569507464766
1760107089227963600,6.039963623046875,0.06685761374235152,-0.03088321404159069,0.06681666067745536
1760107089238029800,6.05002978515625,0.025895488756895065,-0.037113632863759995,0.017810893435403704
1760107089248094700,6.0600947265625,-0.04625964687168598,-0.008374445113539694,-0.027225568316876888
1760107089258161000,6.070160888671875,-0.08326046701073646,0.04354629625976086,-0.04167034632004797
1760107089268226800,6.080226806640625,-0.07658113537728786,0.0872539205610752,-0.04075615408457815
1760107089278293000,6.09029296875,-0.03939852893054485,0.100277652785182,-0.016944303201325235
1760107089288358700,6.100358642578125,0.051281274425983424,0.10363719234615563,-0.002936272647604346
1760107089298424800,6.1104248046875,0.13420797943770885,0.10444850872904062,0.044059762207232414
1760107089308490800,6.12049072265625,0.185872115701437,0.09911328518092631,0.12428349187057465
1760107089318556700,6.130556640625,0.21871990781426429,0.09829232418686151,0.18244049728494136
1760107089328621800,6.140621826171875,0.1802823328703642,0.09189385532140731,0.20615283331647513
1760107089338688000,6.15068798828125,0.06200374397039413,0.09396540089845656,0.1961239720594138
1760107089348753700,6.160753662109375,-0.06324877559542656,0.09211392781287431,0.18055219932030886
1760107089358819800,6.17081982421875,-0.1971118871182203,0.08042495132386684,0.171893165111728
1760107089368885800,6.1808857421875,-0.2648340087354183,0.07357903095185757,0.1598793040499091
1760107089378951700,6.19095166015625,-0.2603425425350666,0.07621493241339922,0.13662906910479067
1760107089389017900,6.201017822265625,-0.21842121712863444,0.061607145868241786,0.1006300464194268
1760107089399083800,6.211083740234375,-0.2265349654793739,0.022457915523648262,0.07318542852438986
1760107089409148700,6.221148681640625,-0.29374212331175803,-0.013721066838502884,0.05787888259273022
1760107089419214800,6.23121484375,-0.3149982618302107,-0.00853285054564476,0.022765922026894984
1760107089429280800,6.24128076171875,-0.28634616784155364,-0.015221826790273188,-0.009995178183168172
1760107089439346700,6.2513466796875,-0.18598142129480838,-0.04531067558377981,0.015138240160048007
1760107089449412900,6.261412841796875,-0.06438742423653603,-0.06944120049476624,0.05861724333725869
1760107089459478800,6.271478759765625,0.06509235763549805,-0.08631985458135605,0.07934687376357615
1760107089469545000,6.281544921875,0.07705109097659588,-0.06330079804360866,0.11002919493820518
1760107089479610600,6.291610595703125,0.004734627306461334,-0.016114683976769448,0.11976981383841484
1760107089489675800,6.30167578125,-0.10704641626775264,0.0380979677259922,0.0773955205000937
1760107089499741700,6.31174169921875,-0.20732640714049339,0.056301440675556653,0.06325407282505184
1760107089509807900,6.321807861328125,-0.25189620122909545,0.054937751106917856,0.07367328510656952
1760107089519873800,6.331873779296875,-0.22104045971632003,0.08067600347548723,0.07218549423422664
1760107089529940000,6.34193994140625,-0.13261457276642322,0.08265461007207632,0.06632452977895736
1760107089540005600,6.352005615234375,-0.03398702527582645,0.059929275783896445,0.05366177635435015
1760107089550071800,6.36207177734375,0.005987842237949371,0.03822539349794388,0.053675256890431046
1760107089560137700,6.3721376953125,0.01629413219690323,0.044295068800449366,0.044296055181138216
1760107089570203000,6.382202880859375,-0.013978840991854667,0.046506899631023405,0.07153130464181304
1760107089580268800,6.392268798828125,-0.05810147583484649,0.06547989564836025,0.09723430303391069
1760107089590335000,6.4023349609375,-0.13700024050474166,0.09793196644186973,0.10496796602588146
1760107089600400600,6.412400634765625,-0.19386603706479072,0.11428075143545866,0.06692713531460613
1760107089610466800,6.422466796875,-0.20961890199184416,0.09017331513911485,0.002453969023376703
1760107089620532700,6.43253271484375,-0.20491817695498465,0.03726064011901617,-0.05148739145733416
1760107089630598700,6.4425986328125,-0.18688275404870508,-0.0020928806260228157,-0.08655033886898308
1760107089640664800,6.452664794921875,-0.16455810951590538,-0.050615503993630406,-0.12337247797288
1760107089650730000,6.46272998046875,-0.13834288728535174,-0.05235007270127535,-0.14641418473385273
1760107089660795600,6.472795654296875,-0.09436521387100219,-0.05218319170176983,-0.13235402213409542
1760107089670861800,6.48286181640625,-0.07556172920167446,-0.04887596684992313,-0.06003752193134278
1760107089680927700,6.492927734375,-0.04898877957463264,-0.04730272618383169,0.006080160163901746
1760107089690993700,6.50299365234375,-0.07012801371514797,-0.01960486418008804,0.040233847243525085
1760107089701059800,6.513059814453125,-0.10808394262194633,0.04095920237600803,0.027255890389904378
1760107089711125800,6.523125732421875,-0.15089607938826083,0.06926379810124635,-0.01711162259224802
1760107089721192000,6.53319189453125,-0.1840460693180561,0.03963350673019886,-0.05989000321943313
1760107089731256800,6.5432568359375,-0.2035211696386337,0.016720248654484748,-0.05273362865876406
1760107089741322800,6.55332275390625,-0.16018763934671879,0.032686464071273805,-0.014912285917066037
1760107089751388700,6.563388671875,-0.11089315482378005,0.05476619393229484,0.07127638003267348
1760107089761454800,6.573454833984375,-0.10959668527245521,0.053776598373055456,0.13512885714229195
1760107089771520800,6.583520751953125,-0.13743103313744068,0.05319646039754152,0.1386660913577303
1760107089781587000,6.5935869140625,-0.1869125646650791,0.04352583799362182,0.09308357656262814
1760107089791652600,6.603652587890625,-0.23395839347839353,0.03795972829908132,0.024764877291768787
1760107089801718800,6.61371875,-0.24348668480217456,0.023424422468245026,-0.033122517400979996
1760107089811783700,6.62378369140625,-0.21665245389044283,0.008155833926796913,-0.039216742622852324
1760107089821849900,6.633849853515625,-0.1855091276079416,0.003616144670546055,0.07821290129758417
1760107089831915800,6.643915771484375,-0.1528846228569746,0.0457163337752223,0.2380032484224066
1760107089841982000,6.65398193359375,-0.1149649343073368,0.10680763907581567,0.3211768773999065
1760107089852047600,6.664047607421875,-0.031715573212504386,0.1277861296966672,0.33852778864074495
1760107089862113800,6.67411376953125,0.09046820643246173,0.08452508011907339,0.2746201838104054
1760107089872179700,6.6841796875,0.18520517622530458,0.015086509972810745,0.20000874107088892
1760107089882246000,6.694245849609375,0.2003062992453575,-0.05722410847842693,0.11963464315142482
1760107089892311800,6.704311767578125,0.1421831961005926,-0.10761311023980379,0.08270064117088913
1760107089902377000,6.714376953125,-0.04684299971759319,-0.08685410758852959,0.08510587568171323
1760107089912442600,6.724442626953125,-0.24803134249448774,-0.0023459786042571065,0.120352107238397
1760107089922508800,6.7345087890625,-0.3888128551036119,0.08436901277452707,0.1503814078643918
1760107089932574700,6.74457470703125,-0.4207990619510412,0.1220323884755373,0.1825412907782942
1760107089942641000,6.754640869140625,-0.38529578689336774,0.0970730115249753,0.20018899300862103
1760107089952706800,6.764706787109375,-0.28525778808295726,0.031040742690861222,0.146309957174398
1760107089962772700,6.774772705078125,-0.1633978335648775,-0.012031506316363811,0.1049378266159445
1760107089972839000,6.7848388671875,-0.06897709011435509,-0.052938393983244895,0.07857917732670902
1760107089982903800,6.79490380859375,-0.03799392282962799,-0.06322305663228035,0.09474851410016417
1760107089992969700,6.8049697265625,-0.02568213826715946,-0.055310968333482737,0.08917710717599839
1760107090003036000,6.815035888671875,-0.06983925990164279,-0.047856560674309725,0.07181267886646092
1760107090013101800,6.825101806640625,-0.16723171263933181,-0.038758185200393196,0.03796411221325397
1760107090023167700,6.835167724609375,-0.2458896542906761,-0.016167875468730927,0.015616050272248685
1760107090033234000,6.84523388671875,-0.2212029568016529,-0.0047772974044084544,0.00934734526630491
1760107090043299600,6.855299560546875,-0.11434417206048965,0.010646481698751448,0.013666450574435293
1760107090053365800,6.86536572265625,0.00032733225822448726,-0.001903203272819519,0.06049571402762085
1760107090063431000,6.875430908203125,0.06578560059666633,-0.017197218516469,0.14459486035220323
1760107090073496800,6.885496826171875,0.08308277235627173,0.007702829462289809,0.1651192870626226
1760107090083562800,6.895562744140625,0.08601414963304996,0.03323562238663435,0.15860135653596372
1760107090093629000,6.90562890625,0.056444940799474715,0.031601006922125814,0.12893157340474426
1760107090103694600,6.915694580078125,-0.030225042393803594,-0.00620353081524372,0.09582973346561192
1760107090113760800,6.9257607421875,-0.12279109788835048,-0.025702888794243334,0.12612100949604063
1760107090123826000,6.935825927734375,-0.19738193623125552,0.028206396047770976,0.15009364043157547
1760107090133892000,6.94589208984375,-0.16965104874074458,0.10452361979186535,0.20398999272678045
1760107090143957200,6.955957275390625,-0.08038345026969909,0.15898323199301956,0.25232085638195273
1760107090154023000,6.96602294921875,-0.002596446233987808,0.16852409053742884,0.2801949517354369
1760107090164089000,6.976089111328125,0.06314531522095203,0.15155395877510308,0.26000808641631157
1760107090174155000,6.986155029296875,0.11887947740256785,0.11351941167414188,0.19810053282938897
1760107090184221000,6.996220947265625,0.14715806190371514,0.0600423807695508,0.11621266934610902
1760107090194287000,7.006287109375,0.0890402194559574,0.009715630589425563,0.031183110303618013
1760107090204353000,7.01635302734375,-0.007082067215442657,-0.019217326167225837,-0.022390585908479987
1760107090214418000,7.02641796875,-0.10480360577702522,-0.003981178590655327,0.0116918625658378
1760107090224483800,7.03648388671875,-0.08744915087223053,0.03706277945935726,0.0611610095359385
1760107090234550000,7.046550048828125,-0.017747838136553763,0.06429740786552429,0.076576678397879
1760107090244616000,7.056615966796875,0.049075873336195945,0.041295010201632974,0.0734348732408136
1760107090254682000,7.06668212890625,0.11032616859078406,-0.01761602845042944,-0.0074915247991681096
1760107090264748000,7.076748046875,0.11541326259672641,-0.09214052355885505,-0.10764445522613823
1760107090274814200,7.086814208984375,0.0407207174450159,-0.15620850658267735,-0.17180311220809816
1760107090284880000,7.0968798828125,-0.04890519294440746,-0.1632818059697747,-0.1679879013014957
1760107090294946000,7.106946044921875,-0.1419914729207754,-0.10049743301570414,-0.08755049235485493
1760107090305011000,7.117010986328125,-0.21666122171878813,-0.008509177409112454,0.010058233482018113
1760107090315077000,7.1270771484375,-0.2413490882515907,0.05362754529118537,0.0884305631250143
1760107090325143000,7.13714306640625,-0.2134825916826725,0.036726971633732314,0.12273173238392919
1760107090335209200,7.147209228515625,-0.10902093121111392,0.020356267069280145,0.11007106131855397
1760107090345275000,7.15727490234375,0.042887540090084074,-0.008495733405649662,0.07748630405608564
1760107090355341000,7.167341064453125,0.13301380121707915,-0.01683686077147722,0.06854096371941268
1760107090365407000,7.177406982421875,0.07502747619450092,-0.016789222237467764,0.10109284162558614
1760107090375473000,7.187472900390625,-0.2294862165004015,0.018041560386121272,0.15927702730782328
1760107090385538000,7.1975380859375,-0.5442120911300182,0.13119301553070545,0.15658183340709655
1760107090395604200,7.207604248046875,-0.7082406238138675,0.24881577087044715,0.13439276142008602
1760107090405670000,7.217669921875,-0.6581237169921398,0.2393582066953182,0.1273630089137703
1760107090415736000,7.227736083984375,-0.4201175094276666,0.1562634516403079,0.18180566998012362
1760107090425802000,7.237802001953125,-0.08732873936295509,0.040698505613207814,0.23909984802007675
1760107090435868000,7.247867919921875,0.19961188724040985,-0.02256108363717794,0.24017175156790763
1760107090445934000,7.25793408203125,0.3364028689086437,-0.055254561971127984,0.20532401780951767
1760107090456000000,7.268,0.24587094959020614,-0.09048749565482139,0.17293693854361772
1760107090466065000,7.27806494140625,0.009158288967609405,-0.08770546372085809,0.1320878454785794
1760107090476131000,7.288131103515625,-0.24943361050784588,-0.025921499980986116,0.17790847987849265
1760107090486197000,7.298197021484375,-0.3740916713118553,0.09585136077553033,0.25773173898216334
1760107090496263000,7.308262939453125,-0.3223234901517629,0.19452830036580562,0.33453860940672453
1760107090506329000,7.3183291015625,-0.1886521018087864,0.1989534233316779,0.3696649043781683
1760107090516395000,7.32839501953125,-0.038867198532819745,0.10136778610944747,0.317907500340417
1760107090526461200,7.338461181640625,0.06938274830579758,-0.009919336467981339,0.18906345908865332
1760107090536526000,7.348526123046875,0.12965513843894005,-0.07667670470625161,0.08800568877644836
1760107090546592000,7.358592041015625,0.11371288841962814,-0.10221768093705176,0.06296257906518876
1760107090556658000,7.368657958984375,0.02354161910712719,-0.05877367600798607,0.11458335111122578
1760107090566724000,7.37872412109375,-0.143564421325922,0.04244476475864649,0.16748671031370757
1760107090576790000,7.3887900390625,-0.3639198213875294,0.12707827368825672,0.22194975658096372
1760107090586856200,7.398856201171875,-0.5914227551162242,0.19059066865593194,0.2739976314652711
1760107090596921900,7.408921875,-0.6924807446241379,0.24300650006979702,0.27158790344242006
1760107090606988000,7.418988037109375,-0.5712690248817205,0.28045272588878867,0.22185911915544418
1760107090617054000,7.429053955078125,-0.26544074245691296,0.24172698165327308,0.15482410301957278
1760107090627119000,7.439119140625,0.05221124875247478,0.12104893039613962,0.11069456351175903
1760107090637185000,7.44918505859375,0.2588531807601452,0.0018783610925078391,0.06259071354549378
1760107090647251200,7.459251220703125,0.32058862918317316,-0.0622600568190217,-0.008416822950541972
1760107090657316900,7.46931689453125,0.2589011115550995,-0.06689210053384304,-0.10935546039510517
1760107090667383000,7.479383056640625,0.11570201641023159,-0.06646306146681308,-0.13285473819784818
1760107090677449000,7.489448974609375,-0.02313070021867752,-0.0525718987584114,-0.09731383454352617
1760107090687515100,7.49951513671875,-0.1272089143306017,-0.02055705033838749,-0.044549189691990614
1760107090697581000,7.5095810546875,-0.22101474075317382,0.017974632629752157,-0.036458603021129965
1760107090707646200,7.519646240234375,-0.23047230492830276,0.055385202613472934,-0.05724997357204556
1760107090717712000,7.5297119140625,-0.1526975758522749,0.07420826876610517,-0.05917575400285423
1760107090727778000,7.539778076171875,0.0014016834914684295,0.05556961926966905,-0.02701002587005496
1760107090737844000,7.549843994140625,0.11829495551288127,0.009966975001990794,0.01853131666444242
1760107090747910100,7.55991015625,0.14682429990470408,-0.0015557050094008446,0.04788611556235701
1760107090757976000,7.56997607421875,0.12425123356878756,0.013146774081885814,0.04295377372670919
1760107090768042000,7.5800419921875,0.034330139625072476,0.06310439868867397,0.016211203153803942
1760107090778108200,7.590108154296875,-0.08782675201296807,0.08240735731273889,-0.00829359842967242
1760107090788173000,7.600173095703125,-0.24868016179203986,0.1079217377975583,0.025216420451551674
1760107090798239000,7.610239013671875,-0.3595399988681078,0.1727355707526207,0.058017377747967835
1760107090808305200,7.62030517578125,-0.3756172734439373,0.243368319119513,0.05848707761894911
1760107090818371000,7.63037109375,-0.3245142781943083,0.26782792985439297,0.05939436518959701
1760107090828437000,7.64043701171875,-0.23732231695353984,0.22698680090010165,0.02475125062521547
1760107090838503200,7.650503173828125,-0.1525526144236326,0.16159633710086344,-0.012456709458492695
1760107090848569000,7.660569091796875,-0.01379705468416214,0.09324088601619004,-0.07734948940128088
1760107090858634000,7.670634033203125,0.10352817901372909,0.030393092437088487,-0.1286571038449183
1760107090868700000,7.680699951171875,0.15875205358564853,-0.022969079916179178,-0.14564341955706475
1760107090878766000,7.69076611328125,0.16074293514192103,-0.06999824985563755,-0.17331399169508366
1760107090888832000,7.70083203125,0.10436638340353965,-0.10360942755639553,-0.1843269686186686
1760107090898898200,7.710898193359375,0.016759411621093748,-0.10554477953314781,-0.19104937220886348
1760107090908963800,7.7209638671875,-0.09743278474807739,-0.06595774229317904,-0.17466898650061338
1760107090919030000,7.731030029296875,-0.1826467239141464,-0.028358956260979173,-0.1851740869672969
1760107090929096000,7.741095947265625,-0.20272797343432902,-0.04007511301785707,-0.15748309309575706
1760107090939161000,7.7511611328125,-0.17790040616989133,-0.06919102512598037,-0.09557722000926733
1760107090949227000,7.76122705078125,-0.12589374007880688,-0.08458850074410439,-0.05780665760673582
1760107090959293200,7.771293212890625,-0.09768296011686324,-0.08719137671887874,-0.04132120408881455
1760107090969358800,7.78135888671875,-0.10999240659177302,-0.10810615445375442,-0.01804430033247918
1760107090979425000,7.791425048828125,-0.13805530251562595,-0.1252317690387368,-0.003489961007609963
1760107090989491000,7.801490966796875,-0.1749047314852476,-0.12059914080202579,-0.023854411383345722
1760107090999557000,7.81155712890625,-0.24450199932456015,-0.12274930457323789,-0.06602594869118183
1760107091009623000,7.821623046875,-0.31245383804440496,-0.1041749524846673,-0.09891619170624762
1760107091019688200,7.831688232421875,-0.3050912003219127,-0.07091624148339033,-0.11489957745354622
1760107091029753900,7.84175390625,-0.2094645882129669,-0.056637540762126445,-0.09399758613500743
1760107091039820000,7.851820068359375,-0.07730243538916111,-0.07042553535699844,-0.007883629389293491
1760107091049886000,7.861885986328125,0.029423662883043288,-0.06628069063723087,0.06901716639641672
1760107091059952000,7.8719521484375,0.006087210959196091,-0.035843759058415886,0.10193495500553398
1760107091070018000,7.88201806640625,-0.07758475946187973,0.010040040238201618,0.08823635572716593
1760107091080084000,7.892083984375,-0.1835486411899328,0.03558744620978832,0.01530486543122679
1760107091090150100,7.902150146484375,-0.23536124601364133,-0.0043795302584767335,0.0004857011577114463
1760107091100215000,7.912215087890625,-0.20229367367029188,-0.026000118175148964,0.06441146269924938
1760107091110281000,7.922281005859375,-0.14721476052701474,-0.011399930414557457,0.11611425047293304
1760107091120347100,7.93234716796875,-0.12275894918441772,0.026856442743539807,0.16940401517711579
1760107091130413300,7.942413330078125,-0.1506008958339691,0.052044367752969264,0.17152751013711093
1760107091140479200,7.952479248046875,-0.1887123075634241,0.0806906165227294,0.12322956237085163
1760107091150545400,7.96254541015625,-0.2247755545914173,0.0961973977342248,0.10111585717499255
1760107091160611300,7.972611328125,-0.28585926110744475,-0.02331716270148754,0.1374117804476991
1760107091170677500,7.982677490234375,-0.15463701948225497,-0.025864509096741675,0.1671939013795927
1760107091180742400,7.992742431640625,0.022664251750707624,0.028073417317867277,0.12380213809441774
1760107091190808300,8.002808349609374,0.16824819620549678,-0.010108429299294949,0.09354750427994876
1760107091200874200,8.012874267578125,0.20472119307816028,-0.05447480977028608,0.10946275669448077
1760107091210940400,8.0229404296875,0.048483752661943436,-0.052883448925614356,0.07505114933103323
1760107091221006300,8.03300634765625,-0.17409984484314917,-0.011847089660167693,0.01033277610708028
1760107091231072500,8.043072509765626,-0.3447328903585672,0.05157704250216484,-0.06967785879485308
1760107091241138400,8.053138427734375,-0.3517541672974825,0.09273732040822505,-0.11249167606160045
1760107091251204600,8.06320458984375,-0.22319442287981509,0.06114420453161001,-0.0873835017574951
1760107091261269200,8.073269287109374,-0.0358627560198307,0.022496786229312418,-0.03191460291594267
1760107091271335400,8.08333544921875,0.12285247268676758,0.00934971988648176,0.02079860400930047
1760107091281401300,8.0934013671875,0.18096622348129748,0.022548808677494526,0.024355748501606284
1760107091291467500,8.103467529296875,0.14556173262298105,0.03426379639059305,-0.0075636767199262975
1760107091301533400,8.113533447265626,0.12399404393732547,0.05251344656944275,-0.06864183027800172
1760107091311599600,8.123599609375,0.10568272669911384,0.0436816130772233,-0.09429149104766547
1760107091321665500,8.13366552734375,0.060493339407443995,-0.00017974048107862473,-0.04664079167637974
1760107091331730400,8.14373046875,-0.05226444024443626,-0.006499298891425132,0.04163754002898931
1760107091341796400,8.15379638671875,-0.1914005237340927,0.06903466552048922,0.05790792602412402
1760107091351862500,8.163862548828124,-0.3239800251871347,0.15053367581665514,0.012075455055944621
1760107091361928400,8.173928466796875,-0.3695429219663143,0.16507307330071924,-0.06085011695586145
1760107091371994400,8.183994384765626,-0.31326164729595185,0.10613280855417251,-0.134102327106148
1760107091382060500,8.194060546875,-0.1600128673017025,0.002109539499878883,-0.2062754367828369
1760107091392126200,8.204126220703126,0.08358370761573314,-0.08984715192466974,-0.22285729987993835
1760107091402192400,8.2141923828125,0.3408072413474321,-0.11131313380151986,-0.14422295829989015
1760107091412257500,8.224257568359375,0.4728039744764566,-0.08851502653807401,-0.00017261662054806947
1760107091422323500,8.234323486328124,0.45014381437897677,-0.028033085307478903,0.15071498720031232
1760107091432389400,8.244389404296875,0.34307986245453354,0.07961889563798905,0.24138156574908642
1760107091442455600,8.25445556640625,0.23282500553429125,0.16829992639273403,0.2744682811843231
1760107091452521200,8.264521240234375,0.05692191066145896,0.20443740770071744,0.295873180523701
1760107091462587400,8.27458740234375,-0.21753566646575925,0.14890402878820896,0.2764016969323158
1760107091472653300,8.2846533203125,-0.38253392096459865,0.10329758512824773,0.21380966821257025
1760107091482719500,8.294719482421876,-0.321670579200983,0.1663107984021306,0.14597836886616422
1760107091492784400,8.304784423828124,-0.16581249349117277,0.15853987213969228,0.17475628119157627
1760107091502850300,8.314850341796875,0.013012041786313057,0.08656973768919705,0.3088541330520063
1760107091512916200,8.324916259765626,0.07934475487172603,0.07800327713489533,0.3891008417321369
1760107091522982400,8.334982421875,0.05297638790607452,0.10828852528333663,0.37804625415652987
1760107091533048300,8.34504833984375,-0.07979191411733627,0.12018120765089987,0.32781174883712083
1760107091543114500,8.355114501953125,-0.22907412856817244,0.07517068405747414,0.2944374486321583
1760107091553180400,8.365180419921876,-0.3590671206593513,0.00993365725427866,0.289334061078541
1760107091563246600,8.37524658203125,-0.4322895932585001,-0.00438186834603548,0.24835763357309623
1760107091573311200,8.385311279296875,-0.4582967256963253,0.0002934299886226654,0.19801201429571955
1760107091583377400,8.39537744140625,-0.43360126037895674,-0.0046510406762361525,0.17286007391512392
1760107091593443300,8.405443359375,-0.4260398852139711,-0.030315643286705014,0.18214591651884837
1760107091603509500,8.415509521484376,-0.39872926896214483,-0.028142975422739983,0.19745673676682635
1760107091613575400,8.425575439453125,-0.31499884635210035,-0.005825929674506187,0.16336256132209673
1760107091623641600,8.4356416015625,-0.24356208812594413,-0.027707214353978632,0.10968562393123284
1760107091633707500,8.44570751953125,-0.20179273841083048,-0.07989099057763814,0.013558131361752747
1760107091643773400,8.4557734375,-0.20800679062008856,-0.13666852433234453,-0.05900996898189187
1760107091653838300,8.46583837890625,-0.21207447845041752,-0.1360878018349409,-0.11693776875026524
1760107091663904500,8.475904541015625,-0.21330080537497997,-0.080958035287261,-0.16503321621436626
1760107091673970400,8.485970458984376,-0.2198690778493881,-0.0297694075807929,-0.17010971576105802
1760107091684036600,8.49603662109375,-0.17146657373011112,-0.001722293747961521,-0.14309366200901566
1760107091694102500,8.5061025390625,-0.07231471010446548,0.02725245632380247,-0.1209118600130081
1760107091704168200,8.516168212890625,0.06005085633695125,0.026708850966393947,-0.1294483638204634
1760107091714234400,8.526234375,0.1596247447669506,0.008992284750938415,-0.1204048238063231
1760107091724299500,8.536299560546874,0.20246493858397005,0.014998539428412913,-0.08461078564114868
1760107091734365400,8.546365478515625,0.23162322852909564,0.028317162945866583,-0.07503312048399821
1760107091744431600,8.556431640625,0.202698162817955,0.06982493911534547,-0.10276619993159547
1760107091754497500,8.56649755859375,0.13574293392002582,0.08256430144011974,-0.09418642323799431
1760107091764563200,8.576563232421876,0.08199965329468249,0.0645803164601326,-0.032270083556417375
1760107091774629400,8.58662939453125,0.022774141865968704,0.0869561066582799,0.017320443037338554
1760107091784695300,8.5966953125,-0.02073766760230064,0.11812456738203764,0.04882818218544125
1760107091794761500,8.606761474609375,-0.12576748335063456,0.12776713273525236,0.06579365603895858
1760107091804826600,8.61682666015625,-0.269364637902379,0.14286036470979452,0.10953342904420568
1760107091814892500,8.626892578125,-0.3587240063101053,0.1599015158817172,0.16201339346915483
1760107091824958200,8.636958251953125,-0.35963878306746483,0.15764292329996824,0.22015339294979347
1760107091835024400,8.6470244140625,-0.3088374011129141,0.1657397205159068,0.2778829667323269
1760107091845090300,8.65709033203125,-0.2554337277054787,0.14636223535090684,0.3070143138715997
1760107091855156500,8.667156494140626,-0.16816636314094066,0.12095979080796242,0.26793451376771554
1760107091865222400,8.677222412109375,-0.058070496174693106,0.0686775226458907,0.19006900113569572
1760107091875288600,8.68728857421875,0.00851063871383667,0.01964285810291767,0.10445718522584065
1760107091885353200,8.697353271484374,0.020116320833563805,-0.033008243371546266,0.00984252663841471
1760107091895419400,8.70741943359375,-0.0057172086030244824,-0.05855038864612579,-0.04254236164791509
1760107091905485300,8.7174853515625,-0.04836626376211643,-0.05235474887639284,-0.03739290646286681
1760107091915551500,8.727551513671875,-0.07428805600404739,-0.018540742079913616,0.04318045862205326
1760107091925617400,8.737617431640626,-0.06380757852196693,0.029025895737111566,0.14869316251650452
1760107091935683600,8.74768359375,-0.07617723075151443,0.08817688062489032,0.25647136365752665
1760107091945749500,8.75774951171875,-0.1167296058923006,0.12459084078669547,0.29602773176459596
1760107091955815400,8.7678154296875,-0.1571148077726364,0.11460223847478627,0.2575037206462584
1760107091965880300,8.77788037109375,-0.18092939860224722,0.08252192360311746,0.19503895330168305
1760107091975946500,8.787946533203124,-0.14539572840631007,0.0435594480022788,0.12302724473178386
1760107091986012400,8.798012451171875,-0.10538462053537369,-0.005739128173887729,0.09593781521627678
1760107091996078600,8.80807861328125,-0.11721183645129203,-0.02079232039898634,0.12750115700913592
1760107092006144500,8.81814453125,-0.1342401281416416,0.008211655767261981,0.16238493019528685
1760107092016210400,8.82821044921875,-0.14239011684954164,0.06228343769460916,0.18312767583150416
1760107092026276400,8.8382763671875,-0.14330956978201864,0.11599807674735783,0.21089140614569185
1760107092036342300,8.84834228515625,-0.20576281108558175,0.1586398253828287,0.2187092402897775
1760107092046407400,8.858407470703124,-0.2591214763075113,0.14368015666007994,0.18795960776628926
1760107092056473600,8.8684736328125,-0.2756447410851717,0.10162935965508221,0.12365577015997842
1760107092066539500,8.87853955078125,-0.21350129638314247,0.060063715818524356,0.056187897298485036
1760107092076605400,8.88860546875,-0.09503507595658302,0.017750760746002195,0.023999573741387576
1760107092086671400,8.89867138671875,0.02558101598024368,-0.042400341095030304,-0.009151731362659484
1760107092096737300,8.9087373046875,0.1296837800115347,-0.07516571562141179,-0.02185174805773422
1760107092106803500,8.918803466796875,0.2105705036282539,-0.07825374476462602,-0.031460520739201456
1760107092116868600,8.92886865234375,0.2198123792260885,-0.0704421942308545,-0.02698344839038327
1760107092126934500,8.9389345703125,0.15406243446469306,-0.07615238857120275,-0.02403121098866686
1760107092137000400,8.94900048828125,0.010657587614655495,-0.06945961293429136,-0.03563566926568747
1760107092147066400,8.95906640625,-0.10974223122298717,-0.031000118419528006,-0.07279889515852556
1760107092157132300,8.96913232421875,-0.14295184238553046,-0.009494096793234348,-0.06526473679402843
1760107092167198500,8.979198486328125,-0.172460845464468,-0.016436171016097068,-0.009383914417028426
1760107092177264400,8.989264404296875,-0.15907880132198332,-0.040356560307741166,0.08434117491953075
1760107092187330600,8.99933056640625,-0.12093173375725745,-0.04241466188132763,0.14343312309645115
1760107092197395500,9.0093955078125,-0.11047229906320571,-0.04057634053826332,0.15297116862926632
1760107092207461400,9.01946142578125,-0.19136895955204963,-0.03163695501834154,0.15161905990056693
1760107092217527300,9.02952734375,-0.3381365608334541,-0.04549041606485844,0.12076309919208288
1760107092227593500,9.039593505859376,-0.3162760266810655,0.038568800108134745,0.09171035198066384
1760107092237659400,9.049659423828125,-0.23182313501536844,0.13601853599101305,0.10314319828413426
1760107092247725600,9.0597255859375,-0.2113286285191774,0.09619652095139027,0.1745437161531299
1760107092257791500,9.06979150390625,-0.2309925294101238,0.06325520533621311,0.22324100196789948
1760107092267857700,9.079857666015625,-0.2732522929906845,0.07828355538100004,0.18673603905439376
1760107092277922300,9.08992236328125,-0.3033113311678171,0.08229746719747781,0.05525865362435579
1760107092287988500,9.099988525390625,-0.3198679136931896,0.05281126047223806,-0.007693002188019454
1760107092298054400,9.110054443359376,-0.3207505417466163,0.05281535212546587,0.03603928163051605
1760107092308120600,9.12012060546875,-0.28164836541414257,0.10471446618884801,0.11527246588654816
1760107092318186500,9.1301865234375,-0.1776929008990526,0.16129443154484033,0.19200177756287157
1760107092328252700,9.140252685546875,-0.08358896831274032,0.17726561539769173,0.2083303965512663
1760107092338318300,9.150318359375,-0.04365910898447036,0.1629427832737565,0.1624566071920097
1760107092348383500,9.160383544921874,-0.01722936722040176,0.1140583408564329,0.085766020090878
1760107092358449400,9.170449462890625,-0.02596446233987808,0.07728636103719472,0.009483904192782939
1760107092368515600,9.180515625,0.02966448590159416,0.0712529260918498,0.002982084550708532
1760107092378581500,9.19058154296875,0.14447276834249495,0.07906593793034553,0.06213617471102625
1760107092388647700,9.200647705078126,0.28169863429665565,0.08374474339634179,0.148924487054348
1760107092398713300,9.21071337890625,0.3641565527528524,0.08717588688880204,0.2154101987443864
1760107092408779300,9.220779296875,0.34978725113868714,0.0732113666832447,0.19505791373047976
1760107092418845400,9.230845458984374,0.2805044560760259,0.05640665461570024,0.11861118185520171
1760107092428910600,9.24091064453125,0.17404489978551863,0.06135054075866937,0.06529167959988116
1760107092438976500,9.2509765625,0.07189502338767051,0.058230070650577545,0.03365340940728783
1760107092449042400,9.26104248046875,-0.050799043866991994,0.038194998359680175,0.061339982832036906
1760107092459108400,9.2711083984375,-0.16379706201553343,0.021609482000768183,0.06300302067343146
1760107092469174300,9.28117431640625,-0.25553017381727694,0.02938742252588272,0.048431511018052695
1760107092479240400,9.291240478515626,-0.31570962496995925,0.003084229750931263,-0.0010042451390996575
1760107092489306400,9.301306396484375,-0.3592752104520798,-0.05415975247174501,-0.023882322303578257
1760107092499372500,9.31137255859375,-0.3103507282853126,-0.059248892304301255,-0.006549129382520913
1760107092509437400,9.3214375,-0.173214294180274,-0.05839402904063463,0.04881481124721467
1760107092519503400,9.33150341796875,-0.014344167172908782,-0.07495324191451072,0.12761753166411072
1760107092529569300,9.3415693359375,0.11337269667983055,-0.10822510465830563,0.18932897815704344
1760107092539635500,9.351635498046875,0.1308241822183132,-0.1570113473981619,0.15066800625342874
1760107092549701400,9.361701416015626,-0.02350070257484913,-0.17877689674347638,0.05891688387095928
1760107092559767600,9.371767578125,-0.28193185853064057,-0.15621464406251906,-0.010079970389790832
1760107092569833500,9.38183349609375,-0.45530397362112995,-0.03834317465871572,-0.01373487616814673
1760107092579899600,9.391899658203124,-0.454395626604557,0.07224047582447528,0.03326214506737887
1760107092589964300,9.40196435546875,-0.36352760719954963,0.12426058591902256,0.12543744767867027
1760107092600030500,9.412030517578126,-0.28883915370106694,0.11930939325243234,0.2220845984743908
1760107092610096400,9.422096435546875,-0.20206863274276254,0.13359832310676573,0.2207567108714953
1760107092620162600,9.43216259765625,-0.17388240270018576,0.12774608994722367,0.14693134047575293
1760107092630228500,9.442228515625,-0.19328911395967005,0.1006523313164711,0.06433087174370884
1760107092640294700,9.452294677734375,-0.2222398986339569,0.08056085266321897,0.028536358654499053
1760107092650360300,9.4623603515625,-0.18047347152829168,0.10823825640082359,0.025543423916213212
1760107092660425500,9.472425537109375,-0.027882278659939766,0.14526801037341355,0.03820763864554465
1760107092670491400,9.482491455078126,0.1249427229642868,0.14678075302392243,0.08522815035451203
1760107092680557600,9.4925576171875,0.1914747580140829,0.12682926736325026,0.12318418885916471
1760107092690623500,9.50262353515625,0.1892734485775232,0.10670037930905818,0.0862446704532951
1760107092700689700,9.512689697265625,0.1008914007693529,0.08369564355760813,0.00886891409959644
1760107092710755300,9.52275537109375,0.014857377392053603,0.05632920546531677,-0.04354834208637476
1760107092720821500,9.532821533203125,-0.06005611703395843,0.01807487813383341,-0.055454541522637006
1760107092730887400,9.542887451171875,-0.09441898988485335,0.003115501672029495,-0.018513196485862134
1760107092740952600,9.55295263671875,-0.10492343276441096,0.02120879224538803,-0.012826675282046198
1760107092751018500,9.5630185546875,-0.11004910521507262,0.0421262003287673,-0.05973718727789819
1760107092761084700,9.573084716796876,-0.13016484152674673,0.015941373236477374,-0.11931607872154563
1760107092771150300,9.583150390625,-0.17163023985922335,-0.0528399020448327,-0.10528733417335898
1760107092781216300,9.59321630859375,-0.15116495945751665,-0.06373948172181844,-0.0717254389744252
1760107092791282400,9.603282470703125,-0.08854279132783413,-0.05065758956968784,0.0050888475716114046
1760107092801348400,9.613348388671875,-0.07149228780567646,-0.037760990856587885,0.10607844801843165
1760107092811413500,9.62341357421875,-0.12832652018368243,-0.03801116622537374,0.14641173704843968
1760107092821479700,9.633479736328125,-0.2311538574516773,-0.034275194567441936,0.12290811186414212
1760107092831545300,9.64354541015625,-0.3038029140770435,-0.022091420298814772,0.055445335302874446
1760107092841611300,9.653611328125,-0.3478735264718532,-0.014136077380180358,0.019324914727546272
1760107092851677400,9.663677490234376,-0.3128495593637228,0.01070522614866495,0.029192630606144666
1760107092861743400,9.673743408203125,-0.24280162514746187,0.03191021900177002,0.07004957818407564
1760107092871809500,9.6838095703125,-0.18432839339077473,0.041706805872917176,0.13117902353797106
1760107092881875500,9.69387548828125,-0.12667583036720753,0.05202537079155445,0.15040734602324662
1760107092891940400,9.7039404296875,-0.046642508709430694,0.04290770609527826,0.12181498286519199
1760107092902006300,9.71400634765625,0.0037549686193466183,0.013449848681688309,0.07438961668238044
1760107092912072400,9.724072509765625,0.020607319220900533,-0.026331542086601257,0.01670925233643502
1760107092922138400,9.734138427734376,0.023999299746751784,-0.03755582367330789,-0.01586808880455792
1760107092932204500,9.74420458984375,0.02923895396590233,0.005130933147668838,-0.006252082664705813
1760107092942270500,9.7542705078125,0.02822890014052391,0.044535307297110555,0.03223064659517258
1760107092952336600,9.764336669921875,-0.026574118670821188,0.07376578569561243,0.07021901646684856
1760107092962401300,9.7744013671875,-0.08353460777699948,0.11116203489303589,0.060063350492343306
1760107092972467500,9.784467529296874,-0.1430284147530794,0.1173959608465433,0.052521154951862985
1760107092982533400,9.794533447265625,-0.22129940291345118,0.11272212381660937,0.07520864144768566
1760107092992599600,9.804599609375,-0.2511217097252607,0.08488105394989251,0.09381203696765004
1760107093002665500,9.81466552734375,-0.24901158570349216,0.07633563618361949,0.10891889560874551
1760107093012731600,9.824731689453126,-0.22945991301536559,0.05347878447026014,0.06537961361166089
1760107093022797300,9.83479736328125,-0.15967793625891208,0.04295476010739803,0.042021388247422874
1760107093032863500,9.844863525390625,-0.07058920148611068,0.03885872296541929,0.030972974684275685
1760107093042928400,9.854928466796874,-0.00973930372595787,-0.006028758770227432,0.033152876006625594
1760107093052994600,9.86499462890625,-0.007342763978242873,-0.0229942143574357,0.026402086572162805
1760107093063060500,9.875060546875,-0.08296879058778285,-0.046645139057934284,-0.033460005727037785
1760107093073126700,9.885126708984375,-0.2186748996287584,-0.058201136817038056,-0.056104310668259855
1760107093083192300,9.8951923828125,-0.28931553904116153,-0.046404900561273096,-0.032403884270228445
1760107093093258500,9.905258544921875,-0.2685258489906788,0.02233984210193157,0.007761646977439522
1760107093103324400,9.915324462890625,-0.16721359246075151,0.06509528024494647,0.055434740843623875
1760107093113390300,9.925390380859374,-0.05753098247051239,0.0677329352721572,0.10254545158669352
1760107093123455500,9.93545556640625,0.018016133683919907,0.06905979996174573,0.17838501134905962
1760107093133522000,9.94552197265625,0.03675648998916149,0.07379998022615909,0.22221673695407806
1760107093143588000,9.955588134765625,-0.002564297530055046,0.10458850172162056,0.2150178018933162
1760107093153654000,9.965654052734376,-0.030560557958483694,0.1169996550053358,0.16962532977759837
1760107093163720200,9.97572021484375,-0.02593348267972469,0.09986702615767717,0.09638681935910134
1760107093173785900,9.985785888671876,-0.029289222848415373,0.06693623193651438,0.04328932582400739
1760107093183852000,9.99585205078125,-0.013527005571126937,0.05126373876929283,0.025539989850111303
1760107093193917000,10.0059169921875,0.02306055759191513,0.05682955620288849,0.025729411474987862
1760107093203983000,10.015983154296874,0.01986146928966045,0.07218611528873443,0.03214629277996719
1760107093214049000,10.026049072265625,-0.03805179049670696,0.07467004105895757,0.08294800352808088
1760107093224115200,10.036115234375,-0.09043371964097023,0.0819368171915412,0.14014171686824412
1760107093234180900,10.046180908203125,-0.09696925888955593,0.10351648857593536,0.18018296414911747
1760107093244247000,10.0562470703125,-0.06577683276832104,0.09953384868055581,0.16817644614353774
1760107093254313000,10.06631298828125,-0.025325579914450645,0.059524494375288485,0.10887567752152681
1760107093264379100,10.076379150390625,-0.008971241962909698,0.013323591953516005,0.07733206334244459
1760107093274444000,10.086444091796874,-0.032979894059896465,-0.024226094239950178,0.04891323012039065
1760107093284510200,10.09651025390625,-0.05928104100823402,-0.02254676285088062,0.03347450917642563
1760107093294575900,10.106575927734376,-0.09238368466496467,-0.013691840744018554,0.023705650562420487
1760107093304642000,10.11664208984375,-0.14320610940754414,0.008870996458828448,0.050308264675363895
1760107093314708000,10.1267080078125,-0.1964426095545292,0.029803602111339568,0.051972617691010234
1760107093324774100,10.136774169921875,-0.23720833518505094,0.03877805894464254,0.03398326241616159
1760107093334840000,10.146840087890626,-0.2498801852315664,0.02916559646874666,0.05410871640425175
1760107093344905200,10.1569052734375,-0.22763678924143313,0.02607026080191135,0.06066537150610238
1760107093354971000,10.166970947265625,-0.2044096429109573,0.028526714043319225,0.05857519429381936
1760107093365037000,10.177037109375,-0.1743167024642229,0.032867081335186954,0.07261150109395384
1760107093375103000,10.18710302734375,-0.11614742209017276,0.04419540781825781,0.10470182590298353
1760107093385169200,10.197169189453126,-0.06442658720314502,0.04932312609553337,0.140042567342706
1760107093395235000,10.207235107421875,-0.05038520236909389,0.05492196901589632,0.17833335422705857
1760107093405301000,10.217301025390626,-0.04654898520708084,0.05626169318705797,0.1806592398913577
1760107093415367200,10.2273671875,-0.09450666816830634,0.030185294905304905,0.12899554201904684
1760107093425432000,10.23743212890625,-0.1847428194105625,-0.017356500731408594,0.03046195642221719
1760107093435498000,10.247498046875,-0.25447628085017204,-0.04203559943586588,-0.05902732197549194
1760107093445564000,10.25756396484375,-0.2522954296797514,-0.037050212238729,-0.08328446894083172
1760107093455630000,10.267630126953126,-0.19531506682932376,-0.012438333551585674,-0.03470876367911696
1760107093465696000,10.277696044921875,-0.09329963046610355,0.016371873608231544,0.014008395879901945
1760107093475762200,10.28776220703125,0.022257424515485763,0.020605565655231476,0.04887717242632061
1760107093485827800,10.297827880859375,0.10439677854180335,0.0013777180939912796,0.08698799963388591
1760107093495893000,10.30789306640625,0.10660744032859802,-0.032382220427691934,0.08620298673603684
1760107093505959000,10.317958984375,0.016028759258985517,-0.04041033632159233,0.07246321519706397
1760107093516025000,10.328025146484375,-0.0991442648410797,0.020881459987163543,0.06305602950230241
1760107093526091000,10.338091064453126,-0.1630190633803606,0.06949643781334161,0.01015117246247828
1760107093536157200,10.3481572265625,-0.18462708407640457,0.09253361452966928,0.03380096465181559
1760107093546222800,10.358222900390626,-0.14872867222130298,0.10138298367857933,0.09072839173860847
1760107093556289000,10.3682890625,-0.07119418164193629,0.11151040993928908,0.11765906876213848
1760107093566355000,10.37835498046875,-0.0006277765095233917,0.10245032064914703,0.09955069021750242
1760107093576420000,10.388420166015624,0.030480478459596633,0.06396452264934778,0.021778226163797078
1760107093586486000,10.398486083984375,0.03435702763199806,-0.005048223300278186,-0.03402995110210031
1760107093596552200,10.40855224609375,-0.05871463929712772,-0.047865036241710186,-0.04198485562931746
1760107093606617900,10.418617919921875,-0.1703559821397066,-0.04447305571585893,-0.01755560350008309
1760107093616684000,10.42868408203125,-0.3007569705098867,0.004794833061099052,0.026076690542697904
1760107093626750000,10.43875,-0.3573381049096584,0.07504676541686058,0.07062606289777905
1760107093636816100,10.448816162109376,-0.325876214197278,0.09748393041342496,0.12849884454328567
1760107093646881000,10.458881103515624,-0.21486966212689876,0.08489362117052078,0.1594957480924204
1760107093656947200,10.468947265625,-0.06710311293601989,0.0603732201591134,0.125771100079827
1760107093667012900,10.479012939453124,0.03914718451797962,0.02587736857831478,0.048524121204949915
1760107093677079000,10.4890791015625,0.12032441551387309,-0.005473462975025177,0.029878238250128922
1760107093687145000,10.49914501953125,0.16496318318545816,-0.0022474866658449173,0.03111431938372552
1760107093697211100,10.509211181640625,0.12774316733777522,0.03714168991446495,0.030136341197043656
1760107093707277000,10.519277099609376,0.04628010513782501,0.05913023436069488,0.07190254910700022
1760107093717343000,10.529343017578125,-0.060413844430446624,0.08418079672604799,0.1307761052928865
1760107093727407900,10.539407958984375,-0.1531973420679569,0.11930150220692157,0.14639047506470232
1760107093737474000,10.54947412109375,-0.1782762537449598,0.1244803661495447,0.13154405745808034
1760107093747540000,10.5595400390625,-0.17076456294059753,0.11419044280350207,0.11505911539681254
1760107093757606100,10.569606201171876,-0.13323591953516006,0.07476268777847289,0.10042469657305628
1760107093767672000,10.579672119140625,-0.09504267474114894,0.037622459168732164,0.0700228728402406
1760107093777738000,10.589738037109376,-0.10353110162317752,0.003578735269606113,0.0344052506878972
1760107093787804200,10.59980419921875,-0.16056348692178726,-0.008169570191204548,0.04469053439144045
1760107093797869000,10.609869140625,-0.20528876383304595,0.015889058527350425,0.05184541111476719
1760107093807935000,10.61993505859375,-0.21286007587015626,0.028925357972085473,0.02300824288278818
1760107093818001200,10.630001220703125,-0.20711305665075777,0.025247546242177486,-0.002383643733523786
1760107093828067000,10.640067138671874,-0.16816577861905097,-0.009834580793976783,-0.0016372092803940176
1760107093838133000,10.650133056640625,-0.08782441392540931,-0.02033259393274784,0.00977481343075633
1760107093848199200,10.66019921875,-0.015536007305979729,-0.020800211444497108,-0.0008319207794964313
1760107093858264800,10.670264892578125,0.0028431144714355467,-0.035437224084138866,0.012539455838501452
1760107093868331000,10.6803310546875,-0.0391349095582962,-0.028660861817002295,0.05101933555416763
1760107093878396200,10.690396240234374,-0.06708908441066741,0.03790449098050594,0.048665246708691115
1760107093888462000,10.700462158203125,-0.05791092169880867,0.08308920209705829,0.07339417590424419
1760107093898528000,10.710528076171874,0.005291676667332649,0.07577712551802396,0.09461527964193374
1760107093908594200,10.72059423828125,0.04516483737230301,0.049802726306021214,0.08492536801565438
1760107093918659800,10.730659912109376,0.05827215622663497,0.031872809600830075,0.06877952171564101
1760107093928726000,10.74072607421875,0.035113398957252503,0.03319499811530113,0.05151530237756669
1760107093938792000,10.7507919921875,-0.03548164774775505,0.03250730811208486,0.06927877647466957
1760107093948857000,10.760857177734374,-0.08220248239040374,0.056715574434399604,0.11192399570886045
1760107093958923000,10.770923095703125,-0.12606851212382317,0.07550035440325736,0.1287562533704564
1760107093968989200,10.7809892578125,-0.19808394702076912,0.06279577113091946,0.11878646535687148
1760107093979054800,10.791054931640625,-0.2794230905801058,0.06327391003668308,0.06410287167411297
1760107093989121000,10.80112109375,-0.2921808653444052,0.053182724133133887,0.011046879193186759
1760107093999187000,10.81118701171875,-0.23041619082689285,0.04134147969186306,-0.02971449905578047
1760107094009253000,10.821253173828126,-0.14180676400363446,0.020911855125427245,-0.015279109935462474
1760107094019319000,10.831319091796875,-0.04686813415884972,0.0034989480316638946,-0.0043544688824564215
1760107094029384200,10.84138427734375,0.026563012754917143,0.00044131402671337126,-0.020478468676842748
1760107094039449900,10.851449951171874,0.039329555347561836,-0.025017829139530656,-0.01183781037516892
1760107094049516000,10.86151611328125,0.01728314323425293,-0.046269876004755496,0.04371609986871481
1760107094059582000,10.87158203125,-0.03828150759935379,-0.04497311419248581,0.09132427527252585
1760107094069648100,10.881648193359375,-0.1043903488010168,-0.005720715734362602,0.1012032431975007
1760107094079714000,10.891714111328126,-0.16917875505387783,0.046052141600847245,0.07410776753369719
1760107094089780000,10.901780029296875,-0.1822328824162483,0.0526765281766653,0.07088526182323694
1760107094099844900,10.911844970703125,-0.20027473506331442,0.03647738078683615,0.05228588489126414
1760107094109911000,10.9219111328125,-0.19502046779692173,0.009708616326749324,0.02176898341141641
1760107094119977000,10.93197705078125,-0.169066526851058,0.013008242394030093,-0.011377243658713995
1760107094130042600,10.942042724609376,-0.11569207953810691,0.020123335096240043,-0.008650485575944184
1760107094140108300,10.9521083984375,-0.05756722282767295,0.017140812154114244,0.033823139951005575
1760107094150174500,10.962174560546876,-0.03595978665351868,0.0059223757863044735,0.10066497160233556
1760107094160240400,10.972240478515625,-0.028038346004486084,-0.0023892332240939137,0.1278995634758845
1760107094170306600,10.982306640625,-0.016662965509295462,0.0008648001357913017,0.1082349684651941
1760107094180371500,10.992371337890624,-0.016190671822428702,0.005812485671043395,0.05231069053895771
1760107094190437600,11.002437744140625,-0.058551557689905165,-0.020256898348033427,0.033940117394179105
1760107094200503300,11.01250341796875,-0.11169570337831973,-0.016446692410111426,0.07188731500525027
1760107094210569500,11.022569580078125,-0.17534312290251253,0.030136195066571232,0.10135185788795352
1760107094220635400,11.032635498046876,-0.20830957295894623,0.08634206641316414,0.11319408870991318
1760107094230701600,11.04270166015625,-0.23233225358128545,0.10367547852993012,0.12143785664848983
1760107094240767500,11.052767578125,-0.27403672136664387,0.06774491797089577,0.09605809886138886
1760107094250832600,11.06283251953125,-0.2759282342016697,0.0337497093886137,0.04130626224800944
1760107094260898300,11.072898193359375,-0.25233108551502226,0.00011047463715076445,0.003309818667732179
1760107094270964500,11.082964599609374,-0.18828852919340133,-0.008540157069265843,0.006888663535192609
1760107094281030400,11.093030517578125,-0.0693377401202917,-0.003952829279005528,0.01839921471737325
1760107094291096600,11.1030966796875,0.025317981129884717,-0.001324234341084957,0.01881681907493621
1760107094301162500,11.11316259765625,0.038384383451938626,-0.04471007934212684,0.017856413077563048
1760107094311228400,11.123228515625,-0.02348667404949665,-0.06737550013661384,0.004205306202732026
1760107094321294600,11.133294677734375,-0.12892799320816992,-0.05157558119744062,-0.026300197100266813
1760107094331359500,11.143359375,-0.20129355671703814,-0.016044249089062212,-0.0344774391412735
1760107094341425400,11.15342529296875,-0.19971534761488435,0.007846037325263023,0.002064604379609227
1760107094351491300,11.1634912109375,-0.13197744390666485,0.016794775195419786,0.046551250229403374
1760107094361557500,11.1735576171875,-0.08235562712550162,-0.018381459864974022,0.05688124985750764
1760107094371623400,11.18362353515625,-0.06920388460755347,-0.029168811339139938,0.02412807722557336
1760107094381689600,11.193689697265626,-0.061657707011699675,-0.02452186231613159,-0.005699124957062303
1760107094391755300,11.20375537109375,-0.0885088890582323,-0.01697948411256075,-0.009322758814319968
1760107094401820400,11.2138203125,-0.1429407364696264,0.007903904992341995,0.08977032382879406
1760107094411886300,11.22388623046875,-0.22050854479670523,0.08199468485862016,0.17066698431763797
1760107094421952500,11.233952392578125,-0.22883915076851843,0.17181377973258494,0.18454305905476212
1760107094432018400,11.244018310546876,-0.16984920166134834,0.2130485841795802,0.16323292532674968
1760107094442084600,11.254084716796875,-0.10807049861848354,0.17419687547683715,0.11062109641674905
1760107094452150300,11.264150390625,-0.07933131086826324,0.09202771083414554,0.03592380202468484
1760107094462216400,11.274216552734375,-0.07802022826969623,0.049017713408172126,0.010112301756814122
1760107094472281300,11.28428125,-0.10765490355491637,0.06410422338098287,0.022937844527699053
1760107094482347500,11.294347412109374,-0.12405775682330131,0.11028759014606475,0.08665463949367404
1760107094492413400,11.304413330078125,-0.13068155887722968,0.14135843571424483,0.1550922159038484
1760107094502479600,11.314479736328124,-0.1022165118932724,0.14592822784781456,0.16559958139285444
1760107094512545300,11.324545166015625,-0.0376274276047945,0.1261316404879093,0.14930548572856933
1760107094522611500,11.334611572265626,0.040136780077219006,0.06895984671860933,0.09195015208590775
1760107094532677400,11.344677490234375,0.07632511478960513,0.020414719258248806,0.009555252395942807
1760107094542743600,11.35474365234375,0.10325579181313514,-0.01867167498320341,-0.046384990284405646
1760107094552808400,11.364808349609374,0.13666881659328936,-0.02161474269777536,-0.03178352388218045
1760107094562874600,11.37487451171875,0.1634627154946327,-0.02687076352983713,0.006456080804206431
1760107094572940300,11.384940185546874,0.11198621075749397,-0.030201369257271286,0.06079692546389997
1760107094583006500,11.39500634765625,0.03197334736585617,-0.015679507429897783,0.08710150647833943
1760107094593072400,11.405072265625,-0.017418752312660216,-0.0018494272589683531,0.06660298139415681
1760107094603138600,11.415138671875,-0.07735796496868133,-0.005464402885735035,0.07418737210854888
1760107094613204500,11.42520458984375,-0.12824001094400883,-0.006821078191697597,0.0524179503057152
1760107094623269600,11.43526953125,-0.1703483833551407,0.0044812370672822,0.030124869954958555
1760107094633335300,11.445335205078125,-0.1804863310098648,0.016975100198388098,0.0030633330933749676
1760107094643401500,11.4554013671875,-0.16243337244689462,0.022158348055183887,0.0021991905447095632
1760107094653467400,11.46546728515625,-0.19198329205811024,0.023428806382417677,0.040661534603685136
1760107094663533600,11.475533447265626,-0.23895547111332416,0.02549918291568756,0.10081417081467807
1760107094673599500,11.485599609375,-0.27741058171391486,0.042910044182837004,0.10926818397045135
1760107094683665400,11.49566552734375,-0.28579028752446173,0.04865647888034582,0.11444898414183408
1760107094693730300,11.505730224609374,-0.27357787168323994,0.03044745297282934,0.12612773149777204
1760107094703796500,11.51579638671875,-0.23033377324044704,0.021904081033170222,0.12482095974814146
1760107094713862400,11.5258623046875,-0.14762275680601597,0.02066635593175888,0.12499759495668113
1760107094723928600,11.535928466796875,-0.07959200763106346,0.018268939401209352,0.09906761940829455
1760107094733994500,11.545994384765624,-0.05481120211780071,-0.014109773895144461,0.07421078951675444
1760107094744060400,11.556060302734375,-0.0644926381766796,-0.026452538117766378,0.07551829191874712
1760107094754126600,11.566126708984376,-0.09596037410795688,-0.0013145897299051284,0.08621365426052362
1760107094764192300,11.576192138671875,-0.12949497944116592,0.0459755692332983,0.08135372007396072
1760107094774257400,11.58625732421875,-0.14238134902119637,0.07354600546509027,0.06882789090201258
1760107094784323300,11.5963232421875,-0.14530921916663647,0.06297083543688059,0.057185310837998986
1760107094794389500,11.606389404296875,-0.1153787758052349,0.05972966155856847,0.08464702599830926
1760107094804455400,11.616455322265624,-0.06149404088258743,0.060875908984243866,0.07361691527683288
1760107094814521600,11.626521484375,-0.03607259937822819,0.053475861860811706,0.031885340288840235
1760107094824587300,11.636587158203126,-0.010005261185765266,0.04443710761964321,0.018836437090858815
1760107094834653400,11.6466533203125,-0.0025227964758872986,0.039897710624337196,0.012079035252518952
1760107094844718300,11.65671826171875,0.006790975314378738,0.035301907266676424,0.008420768473297357
1760107094854784500,11.666784423828124,-0.03103694329857826,0.04180003711432218,0.06583188742380588
1760107094864850400,11.676850341796875,-0.06539572449624538,0.05248918891102075,0.07671243360675871
1760107094874916600,11.68691650390625,-0.0935936449766159,0.06092413204014301,0.07249835957568139
1760107094884982300,11.696982177734375,-0.15148820006251335,0.03969488152861595,0.07767492196336388
1760107094895048400,11.70704833984375,-0.21283201881945132,0.017654022373259068,0.0406174397336319
1760107094905114400,11.7171142578125,-0.212362647742033,0.015848434256017205,0.019694186431355773
1760107094915179500,11.727179443359375,-0.1745166089504957,0.013974457077682018,0.029987397713027893
1760107094925245400,11.737245361328124,-0.13031564817428587,0.020729192034900187,0.008734254869259894
1760107094935311600,11.7473115234375,-0.0024438860207796095,0.011360182926058768,-0.04907941700015217
1760107094945377300,11.757377197265624,0.09420213226377963,-0.0248527017056942,0.02393818067666143
1760107094955443500,11.767443359375,0.037028877189755435,-0.05847556984424591,0.07636511800643056
1760107094965509400,11.77750927734375,-0.0593470919817686,-0.006349369026720523,0.06841331875175237
1760107094975575600,11.787575439453125,-0.1747691224068403,0.0997612276956439,0.07314374480713158
1760107094985641500,11.797641357421876,-0.25080197625160217,0.1592480204090476,0.09855440918914973
1760107094995706600,11.80770654296875,-0.27361586560606954,0.14075696268975735,0.08337214722428471
1760107095005772300,11.817772216796875,-0.2862695954740047,0.11501403414607048,0.08526658266875893
1760107095015838500,11.82783837890625,-0.2669610838919878,0.12180121006816624,0.08870616519600152
1760107095025904400,11.837904296875,-0.255707283949852,0.14616642051786183,0.09451054062582552
1760107095035970600,11.847970458984374,-0.23420155458450315,0.15342852047532796,0.11586462309341877
1760107095046036500,11.858036376953125,-0.24717151079475877,0.1130260751992464,-0.01483048938512802
1760107095056102400,11.868102294921876,-0.2398889525711536,0.00020838205367326734,-0.17600553233399988
1760107095066167300,11.878167236328125,-0.2812520595729351,-0.13913666801154612,-0.28377916689775884
1760107095076233500,11.8882333984375,-0.44402971541285513,-0.24877602338194846,-0.37365170899201183
1760107095086299400,11.89829931640625,-0.3573872047483921,-0.17096183907836673,-0.31978045460544524
1760107095096365600,11.908365478515625,0.010770400339365004,-0.005988719020783901,-0.10750709258206188
1760107095106431500,11.918431396484374,0.20405250003635883,0.06276683729737997,0.18690390643458812
1760107095116497400,11.928497314453125,0.22693302488625047,0.09835077637583017,0.41895770840067414
1760107095126563600,11.9385634765625,0.09317395825982093,0.12718436441123485,0.35801954783517864
1760107095136628200,11.948628173828125,-0.005614332750439643,0.15222586668729782,0.23089213777557013
1760107095146694100,11.958694091796875,0.004627659800648689,0.1451300632074475,0.15153258719351143
1760107095156760000,11.968760009765624,0.052209495186805725,0.04763502687811851,0.06243592484258115
1760107095166826000,11.978825927734375,0.0029904139876365658,-0.06519143409579992,-0.03680361706651747
1760107095176892200,11.98889208984375,-0.03492693647444248,-0.0840647691309452,-0.12114512077961116
1760107095186958000,11.9989580078125,0.03535129936635494,-0.02918576247394085,-0.1560845879420638
1760107095197024000,12.00902392578125,0.10036182393729687,-0.007375789465010166,0.037349195185303684
1760107095207089200,12.019089111328125,0.12289689635038376,0.044018882207572455,0.24422219600249082
1760107095217155000,12.029155029296875,0.2589309221714735,0.20287556521147487,0.4095853017583489
1760107095227221000,12.039220947265624,-0.07395020235180855,0.36874154245555396,0.44531306975428014
1760107095237287200,12.049287109375,-0.2993552870184183,0.18287644101679323,0.36513442134167995
1760107095247353000,12.05935302734375,-0.3879179520905018,0.012357669530808925,0.16073829549942165
1760107095257419000,12.0694189453125,-0.22044132477939127,-0.1269485098287463,-0.118887843372114
1760107095267485200,12.079485107421876,-0.01250292322039604,-0.166263452129066,-0.26222532407436516
1760107095277551000,12.089551025390625,0.2750169645756483,-0.09706979665458201,-0.22060911909434944
1760107095287616000,12.099615966796875,0.3185211752593517,0.11364128448814154,0.04909278793837875
1760107095297682000,12.109681884765624,0.14526187289357184,0.25965368348807094,0.32352585167884823
