time,seconds_elapsed,z,y,x
1760107083199758800,0.0117587890625,-0.05260675400495529,-0.09158477932214737,-0.012589561752974987
1760107083209824500,0.021824462890625,-0.049375273287296295,-0.061170946806669235,0.0010695254895836115
1760107083219890700,0.031890625,-0.039613988250494,-0.03741448372602463,0.004352670628577471
1760107083229955600,0.04195556640625,-0.03886963427066803,-0.035582493990659714,-0.00962413102388382
1760107083240021800,0.052021728515625,-0.027537085115909576,-0.034037861973047256,-0.023372434079647064
1760107083250087700,0.062087646484375,-0.011799135245382786,-0.03987524285912514,-0.03406502678990364
1760107083260153900,0.07215380859375,-0.004523112904280424,-0.05537297576665878,-0.03934847190976143
1760107083270219500,0.082219482421875,-0.000945954816415906,-0.06174725294113159,-0.047079361975193024
1760107083280285700,0.09228564453125,-0.002898318227380514,-0.059839632362127304,-0.04201269894838333
1760107083290351600,0.1023515625,-0.001814677962101996,-0.058224957436323166,-0.043120041489601135
1760107083300417500,0.11241748046875,0.0022274679504334927,-0.07141772657632828,-0.05096438154578209
1760107083310483700,0.122483642578125,0.011569304391741753,-0.08726593106985092,-0.047562457621097565
1760107083320548900,0.132548828125,0.025856364518404007,-0.09162898361682892,-0.03717293590307236
1760107083330614500,0.142614501953125,0.03710981830954552,-0.07363879680633545,-0.025202026590704918
1760107083340680700,0.1526806640625,0.03984967619180679,-0.05456763878464699,-0.014768559485673904
1760107083350746600,0.16274658203125,0.052988383919000626,-0.04255065694451332,0.0014503574930131435
1760107083360812500,0.1728125,0.05903083086013794,-0.03539127856492996,0.01847141794860363
1760107083370878700,0.182878662109375,0.07166832685470581,-0.028111528605222702,0.031619712710380554
1760107083380944600,0.192944580078125,0.08442220836877823,-0.005923935677856207,0.057500578463077545
1760107083391010800,0.2030107421875,0.08730827271938324,0.01483354065567255,0.08890803158283234
1760107083401076500,0.213076416015625,0.08365042507648468,0.014944061636924744,0.11088231205940247
1760107083411141600,0.2231416015625,0.06924538314342499,-0.012998356483876705,0.13162939250469208
1760107083421207600,0.23320751953125,0.03376275673508644,-0.027873443439602852,0.11299419403076172
1760107083431273700,0.243273681640625,-0.014336595311760902,-0.020627779886126518,0.07561992853879929
1760107083441339600,0.253339599609375,-0.04524178057909012,0.001731853699311614,0.004524976946413517
1760107083451405800,0.26340576171875,-0.050696734338998795,0.0342293418943882,-0.06566130369901657
1760107083461471500,0.273471435546875,-0.044927261769771576,0.07951639592647552,-0.11740358918905258
1760107083471537700,0.28353759765625,-0.0356765054166317,0.07612060010433197,-0.14242932200431824
1760107083481603600,0.293603515625,-0.030221551656723022,0.06386100500822067,-0.15186676383018494
1760107083491668700,0.303668701171875,-0.024449683725833893,0.048891376703977585,-0.14810530841350555
1760107083501734700,0.313734619140625,-0.01866236701607704,0.03966378793120384,-0.14099013805389404
1760107083511800800,0.32380078125,-0.015297729521989822,0.043665189296007156,-0.13048982620239258
1760107083521866500,0.333866455078125,-0.012060657143592834,0.05994749069213867,-0.11683047562837601
1760107083531932700,0.3439326171875,-0.011241469532251358,0.08159898966550827,-0.10494425892829895
1760107083541998600,0.35399853515625,-0.002160090021789074,0.10435117036104202,-0.09610815346240997
1760107083552064800,0.364064697265625,0.009727728553116322,0.10638369619846344,-0.08737804740667343
1760107083562130700,0.374130615234375,0.017107613384723663,0.09234137833118439,-0.08103573322296143
1760107083572196600,0.384196533203125,0.016634371131658554,0.07363400608301163,-0.08551463484764099
1760107083582261500,0.394261474609375,0.010885404422879219,0.08825182914733887,-0.09269718080759048
1760107083592327700,0.40432763671875,0.009109875187277794,0.0931887999176979,-0.11572793126106262
1760107083602393600,0.4143935546875,0.016518522053956985,0.07089520990848541,-0.14228816330432892
1760107083612459800,0.424459716796875,0.02708115242421627,0.045403167605400085,-0.1480427235364914
1760107083622525700,0.434525634765625,0.05294870212674141,0.03585999459028244,-0.12489532679319382
1760107083632591600,0.444591552734375,0.07833395153284073,0.028001008555293083,-0.07754618674516678
1760107083642657800,0.45465771484375,0.09438349306583405,0.023010777309536934,-0.011926434002816677
1760107083652723500,0.464723388671875,0.09297201782464981,0.012774917297065258,0.049918025732040405
1760107083662789600,0.47478955078125,0.0752691850066185,-0.008668323047459126,0.08883373439311981
1760107083672854800,0.484854736328125,0.06186256930232048,-0.0286452267318964,0.10071568936109543
1760107083682920700,0.494920654296875,0.04758935794234276,-0.06187188997864723,0.09674438834190369
1760107083692986600,0.504986572265625,0.04663008451461792,-0.0839255228638649,0.0838317796587944
1760107083703052800,0.515052734375,0.040895767509937286,-0.08744968473911285,0.08529945462942123
1760107083713118500,0.525118408203125,0.03464719280600548,-0.08454364538192749,0.10814910382032394
1760107083723184600,0.5351845703125,0.04330086708068848,-0.08469624817371368,0.15104757249355316
1760107083733250600,0.54525048828125,0.04996756091713905,-0.06450362503528595,0.2099849283695221
1760107083743316700,0.555316650390625,0.05390877276659012,-0.03879746422171593,0.2757386267185211
1760107083753382700,0.565382568359375,0.049672216176986694,-0.049073804169893265,0.32742154598236084
1760107083763447800,0.57544775390625,0.04084277153015137,-0.0863862857222557,0.3492125868797302
1760107083773513500,0.585513427734375,0.02640524134039879,-0.11718521267175674,0.32447102665901184
1760107083783579600,0.59557958984375,0.01786528341472149,-0.137275829911232,0.2567915916442871
1760107083793645600,0.6056455078125,0.010158095508813858,-0.11292921751737595,0.1732969582080841
1760107083803711700,0.615711669921875,0.01763784885406494,-0.043714456260204315,0.10309629142284393
1760107083813777700,0.625777587890625,0.04090721905231476,0.04260072484612465,0.045892924070358276
1760107083823843800,0.63584375,0.0356176495552063,0.08483632653951645,-0.023379357531666756
1760107083833909800,0.64590966796875,0.031190676614642143,0.1109321117401123,-0.06938599795103073
1760107083843975400,0.655975341796875,0.04153492674231529,0.14387807250022888,-0.08653675764799118
1760107083854040600,0.66604052734375,0.05349305272102356,0.13973046839237213,-0.09371397644281387
1760107083864106800,0.676106689453125,0.06361519545316696,0.09479708224534988,-0.0815981924533844
1760107083874172700,0.686172607421875,0.06814629584550858,0.06021753326058388,-0.06414409726858139
1760107083884238600,0.696238525390625,0.07489927113056183,0.045306496322155,-0.04289207234978676
1760107083894304800,0.7063046875,0.08956583589315414,0.043829504400491714,-0.009067797102034092
1760107083904370400,0.716370361328125,0.1095334142446518,0.05452928692102432,0.027308054268360138
1760107083914436600,0.7264365234375,0.11921720206737518,0.07215835154056549,0.060498762875795364
1760107083924502500,0.73650244140625,0.11793755739927292,0.08994027227163315,0.08281099051237106
1760107083934568700,0.746568603515625,0.11584936827421188,0.09656701982021332,0.08920737355947495
1760107083944633600,0.756633544921875,0.11294599622488022,0.09236828237771988,0.07826390862464905
1760107083954699800,0.76669970703125,0.11522752046585083,0.08091508597135544,0.05408960208296776
1760107083964765400,0.776765380859375,0.12097196280956268,0.06590364873409271,0.023925306275486946
1760107083974831600,0.78683154296875,0.12882216274738312,0.03494759649038315,0.005027515348047018
1760107083984897500,0.7968974609375,0.1322544366121292,-0.008326639421284199,-0.0112798186019063
1760107083994963700,0.806963623046875,0.12765009701251984,-0.03554201498627663,-0.017372598871588707
1760107084005029600,0.817029541015625,0.11913064867258072,-0.03828214108943939,-0.019102055579423904
1760107084015095800,0.827095703125,0.10522975027561188,-0.015092399902641773,-0.001573928166180849
1760107084025160400,0.837160400390625,0.10265687108039856,0.01991352066397667,0.009458216838538647
1760107084035226600,0.8472265625,0.10139533132314682,0.05248797684907913,0.018681809306144714
1760107084045292500,0.85729248046875,0.09668100625276566,0.07567505538463593,0.01575952209532261
1760107084055358700,0.867358642578125,0.08963001519441605,0.0821651741862297,0.0006825681775808334
1760107084065424600,0.877424560546875,0.08082906901836395,0.07319378852844238,-0.01200792659074068
1760107084075490800,0.88749072265625,0.07473256438970566,0.061774685978889465,-0.017886588349938393
1760107084085556700,0.897556640625,0.06240958347916603,0.036372922360897064,-0.014672419987618923
1760107084095622700,0.90762255859375,0.05535806342959404,0.018699917942285538,-0.0065172878094017506
1760107084105688600,0.9176884765625,0.05119314789772034,0.019783291965723038,0.019408851861953735
1760107084115754200,0.927754150390625,0.04938832297921181,0.04859896004199982,0.044201284646987915
1760107084125819400,0.9378193359375,0.04243454337120056,0.07943836599588394,0.05631706863641739
1760107084135885600,0.947885498046875,0.027750937268137932,0.10754057765007019,0.0484362430870533
1760107084145951500,0.957951416015625,0.01643543131649494,0.11628825962543488,0.02671310305595398
1760107084156017700,0.968017578125,0.005646167788654566,0.12081217020750046,0.00007643271965207532
1760107084166083300,0.978083251953125,0.003221093211323023,0.09864401817321777,-0.01902349293231964
1760107084176149200,0.988149169921875,0.010046509094536304,0.0705157145857811,-0.01788259483873844
1760107084186215400,0.99821533203125,0.010638795793056488,0.044439900666475296,-0.004886900540441275
1760107084196281300,1.00828125,0.004261057823896408,0.02893630973994732,0.0013976269401609898
1760107084206346500,1.018346435546875,-0.000026897927455138415,0.017064737156033516,-0.005531918257474899
1760107084216412700,1.02841259765625,-0.014101171866059303,0.010246512480080128,-0.0010745854815468192
1760107084226478300,1.038478271484375,-0.038665104657411575,0.015402126125991344,-0.024044882506132126
1760107084236544300,1.048544189453125,-0.044018056243658066,0.03700542077422142,-0.06475609540939331
1760107084246610400,1.0586103515625,-0.02161208540201187,0.04243534058332443,-0.10172289609909058
1760107084256676400,1.06867626953125,0.02502678893506527,0.028651883825659752,-0.12866397202014923
1760107084266742500,1.078742431640625,0.07529342174530029,0.017313476651906967,-0.13586728274822235
1760107084276808400,1.088808349609375,0.10281240195035934,0.00440912926569581,-0.13575516641139984
1760107084286874600,1.09887451171875,0.10655813664197922,-0.007901865057647228,-0.12952497601509094
1760107084296939300,1.108939208984375,0.08957462012767792,-0.01498454250395298,-0.11970536410808563
1760107084307005400,1.11900537109375,0.07474401593208313,-0.009674998000264168,-0.09860274195671082
1760107084317071400,1.1290712890625,0.05410637706518173,0.008405469357967377,-0.08110630512237549
1760107084327137500,1.139137451171875,0.03982571139931679,0.01312192715704441,-0.0672200471162796
1760107084337203500,1.149203369140625,0.03934820368885994,0.02767769992351532,-0.06995857506990433
1760107084347269600,1.15926953125,0.05167624354362488,0.04324733838438988,-0.07214929163455963
1760107084357335600,1.16933544921875,0.06570231169462204,0.0532967783510685,-0.07923436909914017
1760107084367401500,1.1794013671875,0.06061940640211105,0.051842425018548965,-0.08784410357475281
1760107084377467400,1.18946728515625,0.04966342821717262,0.03521178290247917,-0.10282278805971146
1760107084387532500,1.199532470703125,0.039088279008865356,0.011032677255570889,-0.09878756105899811
1760107084397598500,1.209598388671875,0.03519740328192711,0.008679241873323917,-0.07862956076860428
1760107084407664600,1.21966455078125,0.04053730517625809,0.01641812175512314,-0.05747953802347183
1760107084417730600,1.22973046875,0.04608786478638649,0.026313895359635353,-0.043062251061201096
1760107084427796500,1.23979638671875,0.06539765000343323,0.04236902669072151,-0.03193396329879761
1760107084437862400,1.2498623046875,0.0851372629404068,0.07428594678640366,-0.02461479790508747
1760107084447928300,1.25992822265625,0.09453848749399185,0.10787852853536606,-0.018084727227687836
1760107084457994500,1.269994384765625,0.09503223747015,0.13900528848171234,-0.011642009019851685
1760107084468060400,1.280060302734375,0.08976557105779648,0.1476493775844574,-0.019235480576753616
1760107084478125600,1.29012548828125,0.08891575783491135,0.13170556724071503,-0.019229087978601456
1760107084488191500,1.30019140625,0.08959433436393738,0.08628269284963608,-0.025654762983322144
1760107084498257400,1.31025732421875,0.08705607056617737,0.028066255152225494,-0.0299600288271904
1760107084508323300,1.3203232421875,0.0844552293419838,-0.014010624028742313,-0.030067354440689087
1760107084518389500,1.330389404296875,0.08555484563112259,-0.03212251514196396,-0.01648949459195137
1760107084528455400,1.340455322265625,0.08793438225984573,-0.02269039861857891,0.004222441930323839
1760107084538521600,1.350521484375,0.08915277570486069,0.011960788629949093,0.023970313370227814
1760107084548587500,1.36058740234375,0.09060260653495789,0.06321971863508224,0.044254012405872345
1760107084558652400,1.37065234375,0.09068436175584793,0.08788351714611053,0.05023866891860962
1760107084568718300,1.38071826171875,0.0896659716963768,0.06976310163736343,0.04638507589697838
1760107084578784500,1.390784423828125,0.08033478260040283,0.03602937236428261,0.029140841215848923
1760107084588850400,1.400850341796875,0.06929438561201096,0.018671954050660133,0.009799101389944553
1760107084598916600,1.41091650390625,0.0626644492149353,0.005559614859521389,-0.011609251610934734
1760107084608982500,1.420982421875,0.06801899522542953,-0.0032317459117621183,-0.025916019454598427
1760107084619048400,1.43104833984375,0.07833555340766907,-0.0035143073182553053,-0.030894532799720764
1760107084629114400,1.4411142578125,0.08268662542104721,0.004532434046268463,-0.02406698651611805
1760107084639180500,1.4511806640625,0.07773660868406296,0.008590824902057648,-0.01564314216375351
1760107084649245400,1.461245361328125,0.067367322742939,-0.0004141215467825532,-0.007908789440989494
1760107084659311600,1.4713115234375,0.05234736204147339,-0.000895621080417186,-0.0037199032958596945
1760107084669377500,1.48137744140625,0.04719387739896774,0.01835290901362896,0.004066647030413151
1760107084679443500,1.491443359375,0.03972690552473068,0.020953485742211342,-0.0027917916886508465
1760107084689509400,1.50150927734375,0.029884662479162216,0.009106412529945374,-0.03051716275513172
1760107084699575600,1.511575439453125,0.02815334126353264,-0.0006237123161554337,-0.053286392241716385
1760107084709641500,1.521641357421875,0.034873027354478836,0.0005848301807418466,-0.07254823297262192
1760107084719707400,1.531707275390625,0.040826790034770966,0.004709533881396055,-0.07225342094898224
1760107084729773600,1.541773681640625,0.03867362439632416,-0.00040666470886208117,-0.06473798304796219
1760107084739838500,1.55183837890625,0.027456657961010933,-0.012606339529156685,-0.054310910403728485
1760107084749904400,1.561904296875,0.009724532254040241,-0.02575037069618702,-0.05716848000884056
1760107084759970300,1.57197021484375,-0.013884389773011208,-0.025860359892249107,-0.0607653446495533
1760107084770036500,1.582036376953125,-0.03051423281431198,-0.005918342620134354,-0.06919238716363907
1760107084780102400,1.592102294921875,-0.03867762163281441,0.023798806592822075,-0.07398154586553574
1760107084790168600,1.60216845703125,-0.034032270312309265,0.06089477613568306,-0.06749249249696732
1760107084800234500,1.612234375,-0.030174946412444115,0.07157032191753387,-0.05921698361635208
1760107084810300400,1.622300537109375,-0.023556191474199295,0.030252976343035698,-0.05366429314017296
1760107084820365300,1.632365234375,-0.021511683240532875,-0.007689877413213253,-0.05679723620414734
1760107084830431500,1.642431396484375,-0.030186930671334267,-0.026451846584677696,-0.06295286864042282
1760107084840497400,1.652497314453125,-0.048054877668619156,-0.026870496571063995,-0.08299128711223602
1760107084850563600,1.6625634765625,-0.06712257862091064,-0.03758678957819939,-0.10915657877922058
1760107084860629500,1.67262939453125,-0.07295224070549011,-0.032036229968070984,-0.1258026659488678
1760107084870695400,1.6826953125,-0.07392802089452744,-0.012966664507985115,-0.12080790847539902
1760107084880761300,1.69276123046875,-0.06555423885583878,0.00669305631890893,-0.1013692319393158
1760107084890827500,1.70282763671875,-0.060876667499542236,0.015109976753592491,-0.08099684864282608
1760107084900893400,1.7128935546875,-0.057853180915117264,0.00869335699826479,-0.055562861263751984
1760107084910958600,1.72295849609375,-0.0552227757871151,0.014909707009792328,-0.04354481399059296
1760107084921024500,1.7330244140625,-0.06695453077554703,0.019111109897494316,-0.0462854728102684
1760107084931090400,1.74309033203125,-0.08243788778781891,0.010896855965256691,-0.06904910504817963
1760107084941156400,1.75315625,-0.09570788592100143,0.01064891554415226,-0.09163936972618103
1760107084951222500,1.763222412109375,-0.10535837709903717,0.02100834622979164,-0.11110948026180267
1760107084961288400,1.773288330078125,-0.11102612316608429,0.03169481083750725,-0.12012960016727448
1760107084971354400,1.783354248046875,-0.11746004968881607,0.04297303408384323,-0.1164640262722969
1760107084981420500,1.793420654296875,-0.12302099913358688,0.032769132405519485,-0.11872106045484543
1760107084991486500,1.803486572265625,-0.12009524554014206,0.026453977450728416,-0.126067653298378
1760107085001551400,1.81355126953125,-0.10133753716945648,0.022937539964914322,-0.13028663396835327
1760107085011617500,1.823617431640625,-0.07147657871246338,0.024811074137687683,-0.11177366971969604
1760107085021683500,1.833683349609375,-0.045579202473163605,0.02203499525785446,-0.0740388035774231
1760107085031749400,1.843749267578125,-0.034160368144512177,0.012448946014046669,-0.02400972880423069
1760107085041815600,1.853815673828125,-0.03117150068283081,0.009465406648814678,0.03497742488980293
1760107085051881500,1.863881591796875,-0.04385773465037346,-0.0015124091878533363,0.06862220168113708
1760107085061947400,1.873947509765625,-0.049017343670129776,-0.02178705483675003,0.07285396754741669
1760107085072013300,1.884013427734375,-0.054607849568128586,-0.023843547329306602,0.05369039252400398
1760107085082078500,1.894078369140625,-0.047753140330314636,-0.006911169271916151,0.02503877319395542
1760107085092144400,1.904144287109375,-0.03750982508063316,0.014460432343184948,0.004510063212364912
1760107085102210600,1.91421044921875,-0.027357853949069977,0.02604544907808304,0.005585447885096073
1760107085112276500,1.9242763671875,-0.024872060865163803,0.022188926115632057,0.02467844821512699
1760107085122342400,1.93434228515625,-0.03725149855017662,0.0026045716367661953,0.0580582432448864
1760107085132408300,1.944408203125,-0.054012369364500046,-0.009847836568951607,0.08369036763906479
1760107085142474500,1.954474609375,-0.06601203978061676,0.005874400492757559,0.09626315534114838
1760107085152540400,1.96454052734375,-0.07229949533939362,0.033304426819086075,0.09356909990310669
1760107085162606600,1.974606689453125,-0.06976976245641708,0.06052805855870247,0.07087790220975876
1760107085172671500,1.98467138671875,-0.05828514322638512,0.0736321434378624,0.046964578330516815
1760107085182737400,1.9947373046875,-0.040090162307024,0.05054892599582672,0.027581026777625084
1760107085192803300,2.00480322265625,-0.019299395382404327,0.016046611592173576,0.010154899209737778
1760107085202869500,2.014869384765625,0.0035779569298028946,-0.011255317367613316,0.000395745737478137
1760107085212935400,2.024935302734375,0.018071146681904793,-0.019996078684926033,0.007791876792907715
1760107085223001600,2.035001708984375,0.019032813608646393,-0.011231615208089352,0.019212044775485992
1760107085233067500,2.045067626953125,0.020852284505963326,0.008422247134149075,0.039754338562488556
1760107085243133400,2.055133544921875,0.01817314513027668,0.012809538282454014,0.059118978679180145
1760107085253199400,2.065199462890625,0.01522662304341793,0.02905881591141224,0.09245909005403519
1760107085263264500,2.075264404296875,0.015213041566312313,0.06529165804386139,0.11648773401975632
1760107085273330400,2.085330322265625,0.02472265623509884,0.06947708129882812,0.1150035485625267
1760107085283396600,2.095396728515625,0.041007619351148605,0.0415000393986702,0.08811946958303452
1760107085293462500,2.105462646484375,0.05728006735444069,-0.003620034782215953,0.04050028696656227
1760107085303528400,2.115528564453125,0.06819183379411697,-0.05607365444302559,-0.017679128795862198
1760107085313594400,2.125594482421875,0.06814336776733398,-0.0819539874792099,-0.06235365569591522
1760107085323660300,2.135660400390625,0.06443332135677338,-0.05826170742511749,-0.06462053954601288
1760107085333726500,2.1457265625,0.05540813133120537,-0.016043948009610176,-0.02901221066713333
1760107085343791400,2.155791259765625,0.0412619523704052,0.02979065291583538,0.041554369032382965
1760107085353857500,2.165857421875,0.02895335480570793,0.05911152437329292,0.10536157339811325
1760107085363923500,2.17592333984375,0.01828659512102604,0.05626673623919487,0.12794890999794006
1760107085373989400,2.1859892578125,0.007352188695222139,0.012108860537409782,0.09629910439252853
1760107085384055300,2.19605517578125,0.004989964887499809,-0.03502403199672699,0.02852165699005127
1760107085394121500,2.20612158203125,0.00040027310024015605,-0.0636247843503952,-0.037758029997348785
1760107085404187400,2.2161875,-0.012065984308719635,-0.06222955137491226,-0.09085880219936371
1760107085414253600,2.226253662109375,-0.037028856575489044,-0.023871511220932007,-0.11522086709737778
1760107085424319500,2.236319580078125,-0.05986413359642029,0.029225263744592667,-0.10768251866102219
1760107085434384400,2.24638427734375,-0.06553027033805847,0.06428711116313934,-0.06418617814779282
1760107085444450300,2.2564501953125,-0.054551925510168076,0.08032359927892685,-0.00771730812266469
1760107085454516500,2.2665166015625,-0.03467702120542526,0.06786027550697327,0.029266275465488434
1760107085464582400,2.27658251953125,-0.023315975442528725,0.03343811631202698,0.030524618923664093
1760107085474648600,2.286648681640625,-0.017348097637295723,-0.011602859944105148,-0.006409695837646723
1760107085484714500,2.296714599609375,-0.012806342914700508,-0.05325443297624588,-0.04873105511069298
1760107085494780400,2.306780517578125,-0.008077100850641727,-0.06262236833572388,-0.0738220289349556
1760107085504846300,2.316846435546875,-0.012922989204525948,-0.04290112853050232,-0.06772764772176743
1760107085514912300,2.326912353515625,-0.025614283978939056,0.006644054315984249,-0.045100633054971695
1760107085524977400,2.336977294921875,-0.024229971691966057,0.05829979106783867,-0.006065615452826023
1760107085535043600,2.347043701171875,-0.01179221086204052,0.08647390455007553,0.01449718326330185
1760107085545109500,2.357109619140625,0.007327953819185495,0.0857311487197876,0.01954706944525242
1760107085555175400,2.367175537109375,0.018064754083752632,0.06662297248840332,0.007282946724444628
1760107085565241300,2.377241455078125,0.011825233697891235,0.03548528999090195,-0.010362626053392887
1760107085575307300,2.387307373046875,0.0007717840489931405,0.0054815844632685184,-0.022550582885742188
1760107085585373400,2.39737353515625,-0.015808258205652237,-0.01549507025629282,-0.026005500927567482
1760107085595439400,2.407439453125,-0.028752552345395088,-0.03152010962367058,-0.022785739973187447
1760107085605504500,2.41750439453125,-0.04187927395105362,-0.03496677055954933,-0.019748404622077942
1760107085615570400,2.4275703125,-0.04481594264507294,-0.023001190274953842,-0.032643429934978485
1760107085625636400,2.43763623046875,-0.04180976375937462,-0.001478320686146617,-0.046251386404037476
1760107085635702300,2.447702392578125,-0.03224688395857811,0.023897608742117882,-0.057362623512744904
1760107085645768400,2.4577685546875,-0.0220352616161108,0.02804308570921421,-0.06076374650001526
1760107085655834400,2.46783447265625,-0.014959508553147316,0.010634002275764942,-0.0611504390835762
1760107085665900500,2.477900634765625,-0.010981544852256775,-0.02515888214111328,-0.04261403903365135
1760107085675966500,2.487966552734375,-0.002942793071269989,-0.044855356216430664,-0.013553625904023647
1760107085686032600,2.49803271484375,-0.004285558592528105,-0.047326501458883286,0.009898703545331955
1760107085696097300,2.50809716796875,-0.006908506155014038,-0.016219982877373695,0.02582520619034767
1760107085706163500,2.51816357421875,-0.006257096771150827,0.02461160346865654,0.01673850044608116
1760107085716229400,2.5282294921875,-0.0029728866647928953,0.045696381479501724,-0.013059609569609165
1760107085726295600,2.538295654296875,0.002751844236627221,0.02574797347187996,-0.044354148209095
1760107085736361500,2.548361572265625,0.012342420406639576,-0.011746937409043312,-0.0611238069832325
1760107085746427600,2.558427734375,0.02929823473095894,-0.039265912026166916,-0.04310192912817001
1760107085756493600,2.56849365234375,0.03147456794977188,-0.05098568648099899,-0.012605274096131325
1760107085766559500,2.5785595703125,0.028053205460309982,-0.047075897455215454,0.012371981516480446
1760107085776624400,2.588624267578125,0.01642744243144989,-0.018975023180246353,0.020924190059304237
1760107085786690600,2.598690673828125,0.0075758942402899265,0.02143098972737789,0.0123043367639184
1760107085796756500,2.608756591796875,0.006671750918030739,0.04217461869120598,-0.024048877879977226
1760107085806822700,2.61882275390625,0.005868807900696993,0.029384786263108253,-0.061646319925785065
1760107085816888600,2.628888671875,0.020590495318174362,0.0073015885427594185,-0.07569875568151474
1760107085826954200,2.638954345703125,0.03945446386933327,-0.010245447047054768,-0.07391390204429626
1760107085837020400,2.6490205078125,0.0539226196706295,-0.020024839788675308,-0.05245282128453255
1760107085847086300,2.65908642578125,0.057384196668863297,-0.027700603008270264,-0.025780463591217995
1760107085857152500,2.669152587890625,0.052557483315467834,-0.016234630718827248,-0.018860505893826485
1760107085867217700,2.6792177734375,0.049918558448553085,-0.0009092031978070736,-0.022774554789066315
1760107085877283300,2.689283447265625,0.052324723452329636,0.011803396046161652,-0.02774321474134922
1760107085887349200,2.699349365234375,0.05943216755986214,0.009812682867050171,-0.026015620678663254
1760107085897415400,2.70941552734375,0.05862043797969818,0.002944923471659422,-0.011519502848386765
1760107085907481300,2.7194814453125,0.05224908888339996,-0.0054882424883544445,0.011167965829372406
1760107085917547500,2.729547607421875,0.03933435678482056,-0.015960324555635452,0.03255900740623474
1760107085927613400,2.739613525390625,0.023486416786909103,-0.023315975442528725,0.03470578417181969
1760107085937679600,2.7496796875,0.008435562252998352,-0.011425226926803589,0.009817210957407951
1760107085947745500,2.75974560546875,-0.00045859633246436715,0.009097091853618622,-0.01678084395825863
1760107085957810400,2.769810546875,-0.004992894362658262,0.025376196950674057,-0.04839975759387016
1760107085967876400,2.77987646484375,-0.011621235869824886,0.03056163713335991,-0.06537926942110062
1760107085977942500,2.789942626953125,-0.017249293625354767,0.03033606708049774,-0.06491029262542725
1760107085988008400,2.800008544921875,-0.017414942383766174,0.026191657409071922,-0.04403670132160187
1760107085998074600,2.81007470703125,-0.01726767048239708,0.027509920299053192,-0.011425493285059929
1760107086008140500,2.820140625,-0.025624936446547508,0.03357260674238205,0.02219558320939541
1760107086018206500,2.83020654296875,-0.027546139433979988,0.027287546545267105,0.04409874975681305
1760107086028272400,2.8402724609375,-0.029827937483787537,0.020080767571926117,0.048519067466259
1760107086038338300,2.85033837890625,-0.035893552005290985,0.011895807459950447,0.029714485630393028
1760107086048403500,2.860403564453125,-0.0406251922249794,0.001356347929686308,-0.003913515247404575
1760107086058469600,2.8704697265625,-0.05017395317554474,0.004729773849248886,-0.04471900314092636
1760107086068535600,2.88053564453125,-0.05325336754322052,0.017040768638253212,-0.0812985822558403
1760107086078601500,2.8906015625,-0.051601942628622055,0.024779116734862328,-0.09379599988460541
1760107086088667400,2.90066748046875,-0.04482659325003624,0.01756913959980011,-0.08995252847671509
1760107086098733300,2.9107333984375,-0.03404105827212334,0.003937483765184879,-0.06521282345056534
1760107086108799500,2.920799560546875,-0.023794278502464294,-0.010747453197836876,-0.03557317331433296
1760107086118865000,2.930864990234375,-0.026575684547424316,-0.03817295283079147,-0.0376025028526783
1760107086128930000,2.940929931640625,-0.013768009841442108,-0.03976791724562645,-0.042988214641809464
1760107086138996200,2.950996337890625,-0.006358297076076269,-0.034863706678152084,-0.05648671090602875
1760107086149062000,2.961061767578125,-0.00833622645586729,-0.030792800709605217,-0.06680459529161453
1760107086159128000,2.971128173828125,-0.022777484729886055,-0.02845294587314129,-0.07028667628765106
1760107086169194000,2.981194091796875,-0.03483867272734642,-0.02425260841846466,-0.06083059310913086
1760107086179260000,2.991260009765625,-0.03253797069191933,-0.022599851712584496,-0.04192561283707619
1760107086189326000,3.001326171875,-0.01948368549346924,-0.026435069739818573,-0.01432407833635807
1760107086199392000,3.01139208984375,-0.009216401726007462,-0.017110809683799744,0.009886985644698143
1760107086209458200,3.021458251953125,-0.005950034596025944,-0.0013997574569657445,0.028070250526070595
1760107086219523000,3.031523193359375,-0.007950334809720516,0.0052048820070922375,0.03255075216293335
1760107086229589000,3.041589111328125,-0.015358183532953262,0.00935941282659769,0.028191691264510155
1760107086239655000,3.051655029296875,-0.024806546047329903,0.011503257788717747,0.020956680178642273
1760107086249721000,3.06172119140625,-0.027363713830709457,-0.0029529130551964045,0.018211228772997856
1760107086259787000,3.071787109375,-0.026751186698675156,-0.009589776396751404,0.033064477145671844
1760107086269853200,3.081853271484375,-0.018877018243074417,-0.008275240659713745,0.045035917311906815
1760107086279919000,3.091919189453125,-0.011034275405108929,0.005343366414308548,0.05624356493353844
1760107086289985000,3.101985107421875,-0.006780141964554787,0.010366620495915413,0.06215551495552063
1760107086300050000,3.1120498046875,-0.006587861571460962,0.009679791517555714,0.05614742636680603
1760107086310116000,3.1221162109375,-0.010831075720489025,-0.00044900894863530993,0.04610251262784004
1760107086320182000,3.13218212890625,-0.017063671723008156,-0.009355684742331505,0.04068191722035408
1760107086330248200,3.142248291015625,-0.02093191258609295,-0.019478360190987587,0.030541930347681046
1760107086340314000,3.152314208984375,-0.026748256757855415,-0.023548468947410583,0.03154008463025093
1760107086350380000,3.162380126953125,-0.023571904748678207,-0.008825715631246567,0.034087661653757095
1760107086360446000,3.172446044921875,-0.02346457913517952,0.006358297076076269,0.03489912673830986
1760107086370512100,3.18251220703125,-0.02081526629626751,0.024982314556837082,0.028192754834890366
1760107086380578000,3.192578125,-0.02359827049076557,0.023331953212618828,0.023064306005835533
1760107086390643200,3.202643310546875,-0.019689016044139862,0.014844725839793682,0.017558487132191658
1760107086400709000,3.212709228515625,-0.012745888903737068,-0.000011451592399680521,0.02317136526107788
1760107086410775000,3.222775146484375,-0.0019491675775498152,-0.006847519893199205,0.03672073036432266
1760107086420841000,3.232841064453125,0.006644853390753269,-0.01660214550793171,0.049372874200344086
1760107086430907100,3.2429072265625,0.015577628277242184,-0.031257256865501404,0.054187603294849396
1760107086440973000,3.25297314453125,0.020559336990118027,-0.027993550524115562,0.055859003216028214
1760107086451039000,3.2630390625,0.016110260039567947,-0.027272367849946022,0.044382642954587936
1760107086461105200,3.273105224609375,-0.0018013621447607875,-0.025660090148448944,0.024600684642791748
1760107086471170000,3.283170166015625,-0.01877075806260109,-0.010215885937213898,-0.00196434766985476
1760107086481236000,3.293236083984375,-0.02183951810002327,0.010604973882436752,-0.02311384119093418
1760107086491302000,3.303302001953125,-0.00737242866307497,0.03418327122926712,-0.03513002395629883
1760107086501368000,3.3133681640625,0.019106317311525345,0.051965996623039246,-0.024415060877799988
1760107086511434000,3.32343408203125,0.039747413247823715,0.04718029499053955,0.0037819549906998873
1760107086521500200,3.333500244140625,0.04827512055635452,0.02046665921807289,0.032221321016550064
1760107086531566000,3.343566162109375,0.04243906959891319,0.0011848403373733163,0.05193350464105606
1760107086541632000,3.353632080078125,0.023798540234565735,-0.005289304070174694,0.04827991500496864
1760107086551698000,3.363697998046875,0.012556804344058037,0.01065370999276638,0.025006016716361046
1760107086561763000,3.37376318359375,0.012767193838953972,0.026029735803604126,-0.01236532349139452
1760107086571829000,3.3838291015625,0.015561116859316826,0.03281120955944061,-0.03500405699014664
1760107086581895200,3.393895263671875,0.014562697149813175,0.0306942630559206,-0.038838475942611694
1760107086591961000,3.403961181640625,0.005708485841751099,0.025141572579741478,-0.01907995156943798
1760107086602027000,3.414027099609375,0.0009286442655138671,0.017125457525253296,0.007757521700114012
1760107086612093000,3.424093017578125,0.004856008104979992,0.012283564545214176,0.03032994270324707
1760107086622159000,3.4341591796875,0.01835397258400917,0.016561133787035942,0.04375946521759033
1760107086632225000,3.44422509765625,0.023197198286652565,0.030119286850094795,0.04265744984149933
1760107086642290200,3.454290283203125,0.018141720443964005,0.04244013503193855,0.026226544752717018
1760107086652356000,3.464356201171875,0.013411679305136204,0.04730866104364395,0.007601194549351931
1760107086662422000,3.474422119140625,-0.0005946838646195829,0.04410407692193985,-0.007040865253657103
1760107086672488000,3.484488037109375,-0.011669439263641834,0.041127461940050125,-0.024576449766755104
1760107086682554000,3.49455419921875,-0.014093981124460697,0.04595737159252167,-0.027546938508749008
1760107086692620000,3.5046201171875,-0.010075004771351814,0.05235615000128746,-0.02737623080611229
1760107086702686000,3.51468603515625,-0.0022951122373342514,0.04601835831999779,-0.014227671548724174
1760107086712752000,3.524752197265625,0.0037257622461766005,0.04033970087766647,-0.009826265275478363
1760107086722818000,3.534818115234375,0.009423329494893551,0.035829637199640274,0.0039854203350842
1760107086732883000,3.544883056640625,0.01956118457019329,0.04045528173446655,0.018910573795437813
1760107086742949000,3.55494921875,0.022783609107136726,0.034995533525943756,0.03008253499865532
1760107086753015000,3.56501513671875,0.019752399995923042,0.02251063473522663,0.03448633849620819
1760107086763081000,3.5750810546875,0.01798139698803425,0.013508351519703865,0.036667998880147934
1760107086773147100,3.585147216796875,0.016808807849884033,0.017942780628800392,0.035711392760276794
1760107086783213000,3.595213134765625,0.009280583821237087,0.03536837548017502,0.042342398315668106
1760107086793279000,3.605279052734375,0.002269545802846551,0.048650361597537994,0.03248230740427971
1760107086803345000,3.615344970703125,-0.007200388703495264,0.04893505200743675,0.01689882203936577
1760107086813410000,3.62541015625,-0.0007712514488957822,0.0494072288274765,0.007739944849163294
1760107086823476000,3.63547607421875,0.00481259822845459,0.04237435385584831,0.005123921670019627
1760107086833542100,3.645542236328125,0.013148292899131775,0.030833279713988304,0.014718492515385151
1760107086843608000,3.655608154296875,0.019221631810069084,0.008620386011898518,0.023902136832475662
1760107086853674000,3.665674072265625,0.02533438429236412,0.00045060686534270644,0.03185247257351875
1760107086863740000,3.675739990234375,0.03122955746948719,0.008681106381118298,0.027232686057686806
1760107086873806000,3.68580615234375,0.030771760269999504,0.012781308963894844,0.008085357025265694
1760107086883872000,3.6958720703125,0.022722356021404266,0.01895345188677311,-0.015201323665678501
1760107086893938200,3.705938232421875,0.011245197616517544,0.026195650920271873,-0.028493959456682205
1760107086904003000,3.716003173828125,0.006983074825257063,0.022583605721592903,-0.02658793516457081
1760107086914069000,3.726069091796875,0.010771687142550945,0.020593425258994102,-0.01019697729498148
1760107086924135000,3.736135009765625,0.015267103910446167,0.010595918633043766,0.014844193123281002
1760107086934201000,3.746201171875,0.018216287717223167,0.0005475459038279951,0.03397713974118233
1760107086944267000,3.75626708984375,0.011861452832818031,-0.0016466324450448155,0.03538462147116661
1760107086954333200,3.766333251953125,0.001609614584594965,0.009920274838805199,0.01986238732933998
1760107086964399000,3.776399169921875,-0.007367368787527084,0.03370177000761032,-0.006442452780902386
1760107086974465000,3.786465087890625,-0.009249690920114517,0.04583486542105675,-0.02726118266582489
1760107086984530000,3.796530029296875,0.00029640982393175364,0.0493483729660511,-0.031307321041822433
1760107086994596000,3.80659619140625,0.0019118833588436246,0.0317227765917778,-0.023564714938402176
1760107087004662000,3.816662109375,0.009812682867050171,0.005891977343708277,-0.007286408916115761
1760107087014728200,3.826728271484375,0.0073386067524552345,-0.015116634778678417,-0.0044165863655507565
1760107087024794000,3.836794189453125,0.005182777531445026,-0.014454040676355362,-0.006639526691287756
1760107087034860000,3.846860107421875,0.0014591459184885025,0.00498037738725543,-0.015634087845683098
1760107087044926000,3.856926025390625,0.001216798322275281,0.02683534286916256,-0.01888740435242653
1760107087054992000,3.866991943359375,0.00638013519346714,0.035230159759521484,-0.016760870814323425
1760107087065058000,3.87705810546875,0.008354336023330688,0.030486537143588066,-0.01082734763622284
1760107087075123000,3.887123046875,0.014960307627916336,0.028720861300826073,0.0043958136811852455
1760107087085189000,3.897189208984375,0.02056705951690674,0.02316603995859623,0.026096316054463387
1760107087095255000,3.907255126953125,0.007515440694987774,0.018700184300541878,0.033720944076776505
1760107087105321000,3.917321044921875,-0.002162220422178507,0.013576528988778591,0.030357904732227325
1760107087115387000,3.927386962890625,-0.0021899172570556402,0.011693940497934818,0.017837852239608765
1760107087125453600,3.93745361328125,0.01004863902926445,0.009328787215054035,0.004508199170231819
1760107087135519500,3.94751953125,0.025919215753674507,-0.002686330582946539,-0.005775863770395517
1760107087145585400,3.95758544921875,0.03302799165248871,-0.015277490019798279,-0.004196076653897762
1760107087155650300,3.967650390625,0.030900124460458755,-0.008414790034294128,0.004734567832201719
1760107087165716500,3.977716552734375,0.02184830792248249,0.00990376342087984,0.017591509968042374
1760107087175782400,3.987782470703125,0.003216566052287817,0.0316988080739975,0.021461881697177887
1760107087185848600,3.9978486328125,-0.009590575471520424,0.05235907807946205,0.020926853641867638
1760107087195914500,4.00791455078125,-0.011684352532029152,0.0487867146730423,0.018189921975135803
1760107087205980400,4.01798046875,-0.010496050119400024,0.027899008244276047,0.017598967999219894
1760107087216046300,4.02804638671875,-0.0033862092532217503,0.004726844374090433,0.01619548164308071
1760107087226112300,4.0381123046875,0.0083700492978096,-0.006652842741459608,0.014838067814707756
1760107087236177400,4.048177490234375,0.01571265049278736,-0.007958590984344482,0.009555954486131668
1760107087246243600,4.05824365234375,0.021379590034484863,0.010328804142773151,0.002043976215645671
1760107087256309500,4.0683095703125,0.02299666218459606,0.032585106790065765,-0.002703641075640917
1760107087266375400,4.07837548828125,0.020603811368346214,0.03861476853489876,0.0016980315558612347
1760107087276441300,4.08844140625,0.01437893882393837,0.02834721840918064,0.00998925045132637
1760107087286507300,4.09850732421875,0.0005491438205353916,0.011650264263153076,0.010281932540237904
1760107087296573400,4.108573486328125,-0.016573917120695114,0.03452521935105324,-0.002280997345224023
1760107087306639400,4.118639404296875,-0.01625300571322441,0.056887250393629074,-0.019306054338812828
1760107087316705500,4.12870556640625,0.002239984693005681,0.043644148856401443,-0.0380251482129097
1760107087326770400,4.1387705078125,0.019048258662223816,0.03582164645195007,-0.025473136454820633
1760107087336836400,4.14883642578125,0.03281653672456741,0.03880465403199196,0.007093329448252916
1760107087346902300,4.15890234375,0.04139005020260811,0.021195832639932632,0.046609312295913696
1760107087356968400,4.168968505859375,0.04499597102403641,-0.0014506238512694836,0.06992022693157196
1760107087367034400,4.179034423828125,0.04370034113526344,-0.005376921966671944,0.07581593096256256
1760107087377100500,4.1891005859375,0.03311188146471977,-0.013142433948814869,0.058810584247112274
1760107087387166500,4.19916650390625,0.017104951664805412,-0.020185429602861404,0.02191115729510784
1760107087397232400,4.209232421875,0.002357163932174444,-0.013887319713830948,-0.007281348574906588
1760107087407297300,4.21929736328125,-0.0016737966798245907,-0.003891411004588008,-0.023662185296416283
1760107087417363500,4.229363525390625,0.0026192190125584602,0.02094975672662258,-0.01727406121790409
1760107087427429400,4.239429443359375,0.01233229972422123,0.033484723418951035,-0.011032410897314548
1760107087437495600,4.24949560546875,0.021333517506718636,0.030759509652853012,-0.003929760307073593
1760107087447561500,4.2595615234375,0.03247804939746857,0.01810523495078087,-0.0014514228096231818
1760107087457627400,4.26962744140625,0.03819345682859421,0.000245543458731845,-0.006386526394635439
1760107087467693300,4.279693359375,0.04133119434118271,-0.017162209376692772,-0.012557603418827057
1760107087477759500,4.289759521484375,0.03894553333520889,-0.025784725323319435,-0.008625712245702744
1760107087487825400,4.299825439453125,0.03735802322626114,-0.02322622574865818,-0.009291502647101879
1760107087497890600,4.309890625,0.04151282086968422,-0.017611751332879066,0.000538491178303957
1760107087507956500,4.31995654296875,0.040039826184511185,-0.013119264505803585,-0.0057249972596764565
1760107087518022400,4.3300224609375,0.04289473593235016,-0.005329251755028963,-0.01344550121575594
1760107087528088300,4.34008837890625,0.036788906902074814,-0.0015688681742176414,-0.028176777064800262
1760107087538154200,4.350154296875,0.034094054251909256,-0.002141980454325676,-0.03628583624958992
1760107087548220400,4.360220458984375,0.037334322929382324,-0.014022341929376125,-0.03586026281118393
1760107087558286300,4.370286376953125,0.03682885318994522,-0.01685860939323902,-0.030249515548348427
1760107087568352500,4.3803525390625,0.03308817744255066,-0.00788242369890213,-0.02713494747877121
1760107087578417400,4.39041748046875,0.03044365905225277,0.00301736150868237,-0.013401825912296772
1760107087588483300,4.4004833984375,0.030109699815511703,0.010146910324692726,0.0028045750223100185
1760107087598549200,4.41054931640625,0.031918250024318695,0.015793344005942345,0.016387229785323143
1760107087608615400,4.420615478515625,0.03238137438893318,0.018309764564037323,0.023013174533843994
1760107087618681300,4.430681396484375,0.031981103122234344,0.009890980087220669,0.01932336390018463
1760107087628747500,4.44074755859375,0.027940820902585983,0.010809238068759441,0.008237157016992569
1760107087638813400,4.4508134765625,0.018802449107170105,0.018700184300541878,-0.005025917664170265
1760107087648879600,4.460879638671875,0.017292704433202744,0.03398299962282181,-0.014317420311272144
1760107087658944300,4.4709443359375,0.021672537550330162,0.03404238820075989,-0.007795871235430241
1760107087669010400,4.481010498046875,0.03398140147328377,0.028199946507811546,0.004201136529445648
1760107087679076400,4.491076416015625,0.03990959748625755,0.019694076851010323,0.02057371847331524
1760107087689142500,4.501142578125,0.05235641449689865,0.015663381665945053,0.038840074092149734
1760107087699208400,4.51120849609375,0.05736875161528587,0.0067724185064435005,0.048722799867391586
1760107087709274600,4.521274658203125,0.06836148351430893,-0.001532116555608809,0.04493977874517441
1760107087719340300,4.53134033203125,0.08566323667764664,-0.011434015817940235,0.028019649907946587
1760107087729406500,4.541406494140625,0.108546182513237,-0.03536917641758919,0.0005877596559002995
1760107087739472400,4.551472412109375,0.11824781447649002,-0.07219430059194565,-0.025715749710798264
1760107087749537500,4.56153759765625,0.11724966019392014,-0.0791504755616188,-0.04114237800240517
1760107087759603500,4.571603515625,0.10259002447128296,-0.06191876158118248,-0.03794604912400246
1760107087769669400,4.58166943359375,0.08018644899129868,-0.03764777630567551,-0.01782000996172428
1760107087779735300,4.5917353515625,0.06512361019849777,-0.02846892550587654,0.014057761989533901
1760107087789801500,4.601801513671875,0.05077316612005234,-0.044851891696453094,0.035418976098299026
1760107087799867400,4.611867431640625,0.04785434156656265,-0.06371453404426575,0.045168545097112656
1760107087809933300,4.621933349609375,0.05047675594687462,-0.08345148712396622,0.04652995243668556
1760107087819999500,4.63199951171875,0.05602571740746498,-0.08931496739387512,0.046727556735277176
1760107087830064400,4.642064453125,0.05764571949839592,-0.07840213179588318,0.047315582633018494
1760107087840130300,4.65213037109375,0.046899862587451935,-0.0458548404276371,0.041603900492191315
1760107087850196500,4.662196533203125,0.021094100549817085,-0.005371329374611378,0.02762177400290966
1760107087860262400,4.672262451171875,-0.015961922705173492,0.03355849161744118,0.002549177734181285
1760107087870328300,4.682328369140625,-0.054367367178201675,0.05851364508271217,-0.01565486006438732
1760107087880394500,4.69239453125,-0.07783035188913345,0.07668891549110413,-0.02448137477040291
1760107087890460400,4.70246044921875,-0.09018874913454056,0.0727948471903801,-0.02003123238682747
1760107087900526600,4.712526611328125,-0.08776553720235825,0.06293955445289612,-0.008155930787324905
1760107087910591500,4.722591552734375,-0.08357904851436615,0.06542348116636276,0.007143663242459297
1760107087920657400,4.732657470703125,-0.07669317722320557,0.07960614562034607,0.003718571737408638
1760107087930723300,4.742723388671875,-0.07976646721363068,0.09023375809192657,-0.018920160830020905
1760107087940789500,4.75278955078125,-0.08573807030916214,0.10013405978679657,-0.057309363037347794
1760107087950855400,4.76285546875,-0.09092830866575241,0.11493776738643646,-0.09356563538312912
1760107087960921600,4.772921630859375,-0.0896875411272049,0.11521793156862259,-0.10936857014894485
1760107087970987300,4.7829873046875,-0.08003278076648712,0.12271047383546829,-0.09405858814716339
1760107087981053400,4.793053466796875,-0.06479950249195099,0.10610486567020416,-0.06278348714113235
1760107087991119400,4.803119384765625,-0.03374224901199341,0.07358340919017792,-0.027759725227952003
1760107088001184500,4.8131845703125,-0.003733219113200903,0.04496587812900543,0.004236290231347084
1760107088011250400,4.82325048828125,0.02527206763625145,0.022164158523082733,0.02520362287759781
1760107088021316600,4.833316650390625,0.03788932412862778,0.00012303804396651685,0.0312213022261858
1760107088031382300,4.84338232421875,0.04367637261748314,-0.003108441596850753,0.031254060566425323
1760107088041448400,4.853448486328125,0.03735296428203583,0.014667625539004803,0.025725070387125015
1760107088051514400,4.863514404296875,0.028717132285237312,0.03912050276994705,0.021161211654543877
1760107088061580500,4.87358056640625,0.019399531185626984,0.04005181044340134,0.0006175870657898486
1760107088071646500,4.883646484375,0.005688778590410948,0.027838023379445076,-0.024296285584568977
1760107088081711600,4.893711669921875,-0.0012953615514561534,0.009001750499010086,-0.0499609000980854
1760107088091777300,4.90377734375,-0.009867011569440365,-0.012289955280721188,-0.05488322302699089
1760107088101843500,4.913843505859375,-0.015558453276753426,-0.015843411907553673,-0.038184668868780136
1760107088111909400,4.923909423828125,-0.020534569397568703,-0.02105654962360859,-0.003212304785847664
1760107088121975300,4.933975341796875,-0.02177640236914158,-0.009770872071385384,0.03515186160802841
1760107088132041500,4.94404150390625,-0.023186812177300453,0.005958290304988623,0.05919567868113518
1760107088142107400,4.954107421875,-0.028356540948152542,0.03173316270112991,0.06309614330530167
1760107088152173600,4.964173583984375,-0.03398273512721062,0.05459346994757652,0.05293938145041466
1760107088162239200,4.9742392578125,-0.04024941846728325,0.07430458813905716,0.03477555885910988
1760107088172304400,4.984304443359375,-0.04669506847858429,0.08620918542146683,0.01353365182876587
1760107088182370300,4.994370361328125,-0.039209987968206406,0.08000189065933228,0.0068062408827245235
1760107088192436500,5.0044365234375,-0.028242290019989014,0.06708475947380066,0.013411945663392544
1760107088202502400,5.01450244140625,-0.023037143051624298,0.03712553158402443,0.015446067787706852
1760107088212568600,5.024568603515625,-0.02161288447678089,0.005919141694903374,0.0067841364070773125
1760107088222634200,5.03463427734375,-0.02292182669043541,-0.004369714763015509,-0.009700830094516277
1760107088232700400,5.044700439453125,-0.011847072280943394,0.008040882647037506,-0.02985137328505516
1760107088242766300,5.054766357421875,0.0033217607997357845,0.022601716220378876,-0.03317446634173393
1760107088252831500,5.06483154296875,0.013555755838751793,0.027750670909881592,-0.028234567493200302
1760107088262897400,5.0748974609375,0.022836074233055115,0.03680941462516785,-0.010601777583360672
1760107088272963600,5.084963623046875,0.03263437747955322,0.03971732035279274,0.00893570389598608
1760107088283029200,5.095029296875,0.030970698222517967,0.034151311963796616,0.02515914849936962
1760107088293095400,5.105095458984375,0.02436632663011551,0.03304183855652809,0.02845294587314129
1760107088303161300,5.115161376953125,0.015913186594843864,0.03881903365254402,0.024641430005431175
1760107088313227500,5.1252275390625,0.011530688032507896,0.03783126920461655,0.009170861914753914
1760107088323293400,5.13529345703125,0.009885653853416443,0.02732403203845024,-0.007986287586390972
1760107088333358600,5.145358642578125,0.020536966621875763,0.01461889035999775,-0.014373346231877804
1760107088343424300,5.15542431640625,0.0342586375772953,0.0044261738657951355,-0.005791576579213142
1760107088353490400,5.165490478515625,0.03741874545812607,-0.00038642468280158937,0.013852698728442192
1760107088363556400,5.175556396484375,0.02924763411283493,0.006042712368071079,0.03310788422822952
1760107088373622500,5.18562255859375,0.014626879245042801,0.02275378257036209,0.0443248525261879
1760107088383688400,5.1956884765625,0.0016626114957034588,0.03514227271080017,0.03599288687109947
1760107088393754400,5.20575439453125,0.0009701895760372281,0.04506175220012665,0.011777829378843307
1760107088403820500,5.215820556640625,0.0051838429644703865,0.03633057698607445,-0.008005994372069836
1760107088413885400,5.225885498046875,0.0035214978270232677,0.016876451671123505,-0.01960885524749756
1760107088423951400,5.235951416015625,0.009849967435002327,0.0075575183145701885,-0.011208978481590748
1760107088434017500,5.246017578125,0.010233729146420956,0.0016338493442162871,-0.00487145408987999
1760107088444083500,5.25608349609375,0.012205267325043678,-0.0012330436147749424,0.006082926411181688
1760107088454149400,5.2661494140625,0.01750309392809868,0.0007491472060792148,0.008956743404269218
1760107088464215600,5.276215576171875,0.022282669320702553,0.00936101097613573,0.007412909064441919
1760107088474281200,5.28628125,0.024539431557059288,0.010464625433087349,-0.005233644042164087
1760107088484347400,5.296347412109375,0.023256586864590645,0.0071005201898515224,-0.016592025756835938
1760107088494413300,5.306413330078125,0.01498454250395298,0.008447546511888504,-0.019360382109880447
1760107088504478500,5.316478515625,0.007539675105363131,0.01612597331404686,-0.005982258822768927
1760107088514544400,5.32654443359375,0.007670702878385782,0.02431466057896614,0.007021158002316952
1760107088524610600,5.336610595703125,0.01884506084024906,0.024341559037566185,0.019995545968413353
1760107088534676200,5.34667626953125,0.030169354751706123,0.011460380628705025,0.03170013800263405
1760107088544742400,5.356742431640625,0.04320046678185463,0.00018908442871179432,0.03429245948791504
1760107088554808300,5.366808349609375,0.045337121933698654,-0.0014985607704147696,0.026999393478035927
1760107088564874500,5.37687451171875,0.04550649970769882,-0.0013459615875035524,0.021876536309719086
1760107088574940400,5.3869404296875,0.03891117870807648,-0.0025632926262915134,0.013426858931779861
1760107088585005600,5.397005615234375,0.027041470631957054,-0.002898584585636854,0.006508499383926392
1760107088595071200,5.4070712890625,0.02161235176026821,-0.0007568703731521964,0.010455836541950703
1760107088605137400,5.417137451171875,0.0246648658066988,0.004608334042131901,0.024985244497656822
1760107088615203300,5.427203369140625,0.028113659471273422,0.004912200383841991,0.034824028611183167
1760107088625269500,5.43726953125,0.023752734065055847,-0.011239605024456978,0.03389724716544151
1760107088635335400,5.44733544921875,0.019527362659573555,-0.014676947146654129,0.01900405064225197
1760107088645401600,5.457401611328125,0.021462680771946907,-0.009857424534857273,-0.007400392089039087
1760107088655467500,5.467467529296875,0.017184047028422356,-0.010302172042429447,-0.03886670619249344
1760107088665532400,5.477532470703125,0.014081197790801525,-0.001979261403903365,-0.051715925335884094
1760107088675598300,5.487598388671875,0.014253770932555199,0.003212304785847664,-0.046395193785429
1760107088685664500,5.49766455078125,0.02201475389301777,-0.004068511072546244,-0.01187982875853777
1760107088695730400,5.50773046875,0.02646809257566929,-0.00942199770361185,0.03075018897652626
1760107088705796600,5.517796630859375,0.0305725559592247,0.001794171635992825,0.07787349075078964
1760107088715862500,5.527862548828125,0.024991901591420174,0.021095963194966316,0.10706466436386108
1760107088725928200,5.53792822265625,0.012517389841377735,0.040160201489925385,0.09981607645750046
1760107088735994400,5.547994384765625,0.0003486077766865492,0.055084291845560074,0.0667681097984314
1760107088746059500,5.5580595703125,-0.0027715517207980156,0.05651893466711044,0.016339026391506195
1760107088756125400,5.56812548828125,0.0011797803454101086,0.03935832530260086,-0.02780819498002529
1760107088766191400,5.57819140625,0.017903633415699005,0.014063088223338127,-0.045631133019924164
1760107088776257500,5.588257568359375,0.028541630133986473,-0.0067934575490653515,-0.029627135023474693
1760107088786323200,5.5983232421875,0.04092106595635414,-0.01647777669131756,0.006756173446774483
1760107088796389400,5.608389404296875,0.043896619230508804,-0.009534116834402084,0.04110269621014595
1760107088806455300,5.618455322265625,0.039201732724905014,0.0034269557800143957,0.05552371218800545
1760107088816521500,5.628521484375,0.02816079743206501,0.013229519128799438,0.04851587116718292
1760107088826587400,5.63858740234375,0.02299027144908905,0.014066816307604313,0.028364263474941254
1760107088836652500,5.648652587890625,0.01955612376332283,0.017604293301701546,0.007326888851821423
1760107088846718200,5.65871826171875,0.021047495305538177,0.02424142323434353,-0.0011672634864225984
1760107088856784400,5.668784423828125,0.028866002336144447,0.02448749914765358,-0.0070363376289606094
1760107088866850300,5.678850341796875,0.029078256338834763,0.017479125410318375,-0.010550911538302898
1760107088876916500,5.68891650390625,0.02557753212749958,0.01044358592480421,-0.021204620599746704
1760107088886982400,5.698982421875,0.019761454313993454,0.006736465729773045,-0.027065705507993698
1760107088897048600,5.709048583984375,0.013801033608615398,0.0030714236199855804,-0.025682993233203888
1760107088907114500,5.719114501953125,0.013349627144634724,0.0067961206659674644,-0.01792493835091591
1760107088917179400,5.729179443359375,0.017644774168729782,0.009783388115465641,-0.00261895265430212
1760107088927245300,5.739245361328125,0.030413299798965454,0.011595402844250202,0.013613812625408173
1760107088937311500,5.7493115234375,0.04237382113933563,0.01104466151446104,0.02430347539484501
1760107088947377400,5.75937744140625,0.045029524713754654,0.012370916083455086,0.03572923690080643
1760107088957443600,5.769443603515625,0.045330196619033813,0.02593492716550827,0.03033180721104145
1760107088967509500,5.779509521484375,0.03352040797472,0.04206755757331848,0.020626714453101158
1760107088977575400,5.789575439453125,0.02305738255381584,0.05672533065080643,0.010763165540993214
1760107088987641300,5.799641357421875,0.018396317958831787,0.05332926660776138,0.00768854608759284
1760107088997706500,5.80970654296875,0.0173795223236084,0.03670448437333107,0.0062275356613099575
1760107089007772400,5.8197724609375,0.013734720647335052,0.01258157193660736,0.01312032900750637
1760107089017838600,5.829838623046875,0.014636999927461147,-0.001228516222909093,0.016869261860847473
1760107089027904500,5.839904541015625,0.010807107202708721,-0.0060267336666584015,0.01293577253818512
1760107089037970400,5.849970458984375,0.0048855687491595745,0.011358914896845818,0.009371130727231503
1760107089048036400,5.860036376953125,0.0033071134239435196,0.03997378051280975,-0.004612328484654427
1760107089058102300,5.870102294921875,0.012035357765853405,0.0521116703748703,-0.013140036724507809
1760107089068168400,5.88016845703125,0.02028157003223896,0.0385039821267128,-0.02328401803970337
1760107089078233600,5.890233642578125,0.03015284240245819,0.016639696434140205,-0.026554113253951073
1760107089088299500,5.900299560546875,0.03168868646025658,-0.00887924525886774,-0.02117079868912697
1760107089098365200,5.910365234375,0.029447903856635094,-0.02707422897219658,-0.011240404099225998
1760107089108431400,5.920431396484375,0.01955425925552845,-0.03735509514808655,-0.006036320701241493
1760107089118497800,5.930497802734375,0.010338124819099903,-0.036740705370903015,-0.006149771623313427
1760107089128564000,5.94056396484375,0.010880877263844013,-0.031249532476067543,-0.0062363240867853165
1760107089138629600,5.950629638671875,0.013531255535781384,-0.012288091704249382,-0.011873703449964523
1760107089148695800,5.96069580078125,0.01648789644241333,-0.0012175972806289792,-0.01823892444372177
1760107089158760700,5.9707607421875,0.03160666301846504,0.014604775235056877,-0.0075780246406793594
1760107089168827000,5.980826904296875,0.03516038507223129,0.02166268415749073,0.010876083746552467
1760107089178892800,5.990892822265625,0.03320562466979027,0.025052888318896294,0.034814704209566116
1760107089188959000,6.000958984375,0.028120318427681923,0.021570006385445595,0.05018647015094757
1760107089199024600,6.011024658203125,0.019832560792565346,0.019630692899227142,0.04597974196076393
1760107089209090800,6.0210908203125,0.015780027955770493,0.014452442526817322,0.030972829088568687
1760107089219156700,6.03115673828125,0.01380955521017313,0.0037172401789575815,0.009157279506325722
1760107089229222700,6.04122265625,0.01176158431917429,0.004688761197030544,-0.005396363325417042
1760107089239287800,6.051287841796875,0.0024679512716829777,0.0003259709046687931,-0.01570253074169159
1760107089249354000,6.06135400390625,-0.0031039142049849033,0.011691276915371418,-0.018252506852149963
1760107089259419600,6.071419677734375,-0.007785485126078129,0.02381904609501362,-0.010219614021480083
1760107089269485800,6.08148583984375,-0.012374111451208591,0.025733858346939087,-0.007396130822598934
1760107089279551700,6.0915517578125,-0.014636467210948467,0.03309803083539009,-0.013406086713075638
1760107089289617700,6.10161767578125,-0.018438661471009254,0.04742450639605522,-0.02755413018167019
1760107089299683800,6.111683837890625,-0.010300042107701302,0.051304467022418976,-0.042571693658828735
1760107089309749800,6.121749755859375,0.0007222492713481188,0.04181003198027611,-0.05916665121912956
1760107089319816000,6.13181591796875,0.006150570698082447,0.016703879460692406,-0.07443055510520935
1760107089329880800,6.141880859375,0.01281832717359066,-0.010924020782113075,-0.08174972236156464
1760107089339946800,6.15194677734375,0.01582077518105507,-0.028053205460309982,-0.0768716111779213
1760107089350012700,6.1620126953125,0.021090904250741005,-0.026260899379849434,-0.05861910432577133
1760107089360078800,6.172078857421875,0.02104935795068741,-0.012593556195497513,-0.04095648601651192
1760107089370144800,6.182144775390625,0.026812972500920296,0.0017129451734945178,-0.029760291799902916
1760107089380211000,6.1922109375,0.030249249190092087,0.012428440153598785,-0.03086284175515175
1760107089390276600,6.202276611328125,0.04105608910322189,0.012087289243936539,-0.0401383638381958
1760107089400342800,6.2123427734375,0.043849747627973557,0.01392646785825491,-0.03910559043288231
1760107089410407700,6.22240771484375,0.04549238458275795,0.018098842352628708,-0.021144965663552284
1760107089420473900,6.232473876953125,0.04061826691031456,0.018938271328806877,-0.0008111988427117467
1760107089430539800,6.242539794921875,0.027418307960033417,0.012119513005018234,0.01732652634382248
1760107089440606000,6.25260595703125,0.017895376309752464,0.0011297129094600677,0.01906929910182953
1760107089450671600,6.262671630859375,0.011189271695911884,-0.010131729766726494,0.001416269107721746
1760107089460737800,6.27273779296875,0.013740579597651958,-0.014905179850757122,-0.026610305532813072
1760107089470803700,6.2828037109375,0.016590960323810577,-0.004165183752775192,-0.051721516996622086
1760107089480870000,6.292869873046875,0.022665364667773247,0.0038429414853453636,-0.06234779581427574
1760107089490934800,6.302934814453125,0.022051239386200905,0.013910489156842232,-0.06457579880952835
1760107089501001000,6.3130009765625,0.022670159116387367,0.02479855716228485,-0.047450605779886246
1760107089511066600,6.323066650390625,0.023609455674886703,0.025065671652555466,-0.027707794681191444
1760107089521132800,6.3331328125,0.020566260442137718,0.016498282551765442,-0.011958658695220947
1760107089531198700,6.34319873046875,0.01607164368033409,0.0044168527238070965,-0.0036695697344839573
1760107089541265000,6.353264892578125,0.01272618118673563,0.0007613977650180459,-0.008229168131947517
1760107089551330800,6.363330810546875,0.011483284644782543,0.0011877698125317693,-0.019655726850032806
1760107089561396700,6.373396728515625,0.00968458503484726,0.004206196404993534,-0.033413082361221313
1760107089571461600,6.383461669921875,0.0103756757453084,0.008855543099343777,-0.045886531472206116
1760107089581527800,6.39352783203125,0.018804579973220825,0.009741310961544514,-0.04232348874211311
1760107089591593700,6.40359375,0.028619660064578056,0.010028665885329247,-0.032948363572359085
1760107089601659600,6.41365966796875,0.032349150627851486,0.009974603541195393,-0.014976286329329014
1760107089611725800,6.423725830078125,0.03045005165040493,0.006681604776531458,-0.010960238985717297
1760107089621791700,6.433791748046875,0.01769830286502838,0.0044072652235627174,-0.00869415607303381
1760107089631858000,6.44385791015625,0.006726345978677273,0.002886600326746702,-0.010853978805243969
1760107089641923800,6.453923828125,-0.003991279285401106,0.01210007257759571,-0.019000856205821037
1760107089651988700,6.46398876953125,-0.017888719215989113,0.022130869328975677,-0.023866716772317886
1760107089662054700,6.4740546875,-0.02394208498299122,0.02737649716436863,-0.03233423829078674
1760107089672120800,6.484120849609375,-0.028862275183200836,0.016956346109509468,-0.03658650815486908
1760107089682186800,6.494186767578125,-0.028917135670781136,0.00019334549142513424,-0.03365569934248924
1760107089692253000,6.5042529296875,-0.027347734197974205,-0.017948640510439873,-0.029887856915593147
1760107089702318600,6.514318603515625,-0.020431239157915115,-0.021872276440262794,-0.02058357186615467
1760107089712384800,6.524384765625,-0.024832911789417267,-0.011839082464575768,-0.014628211036324501
1760107089722450700,6.53445068359375,-0.03875724971294403,0.005566539242863655,-0.0067961206659674644
1760107089732515800,6.544515869140625,-0.041855569928884506,0.025441976264119148,-0.0036011263728141785
1760107089742581800,6.554581787109375,-0.04012611508369446,0.0227990560233593,-0.01477868016809225
1760107089752648000,6.56464794921875,-0.024540230631828308,0.00358781055547297,-0.015456453897058964
1760107089762713600,6.574713623046875,-0.010094179771840572,-0.011271030642092228,-0.013252954930067062
1760107089772779800,6.58477978515625,-0.0020754013676196337,-0.028715800493955612,-0.010062221437692642
1760107089782845700,6.594845703125,-0.005585181526839733,-0.031153924763202667,0.005350024439394474
1760107089792912000,6.604911865234375,-0.021740183234214783,-0.009802563115954399,0.013562946580350399
1760107089802977800,6.614977783203125,-0.03852076083421707,0.019697271287441254,0.009286176413297653
1760107089813043000,6.62504296875,-0.04549877345561981,0.046062566339969635,0.001255680457688868
1760107089823108600,6.635108642578125,-0.03191665560007095,0.04806340113282204,0.0026879284996539354
1760107089833174800,6.6451748046875,-0.01070990227162838,0.02851446531713009,0.021108213812112808
1760107089843240700,6.65524072265625,0.010816695168614388,-0.0016341155860573053,0.043300334364175797
1760107089853307000,6.665306884765625,0.018930546939373016,-0.02587340958416462,0.05969448760151863
1760107089863372800,6.675372802734375,0.024991901591420174,-0.040837179869413376,0.05023147910833359
1760107089873438700,6.685438720703125,0.018273279070854187,-0.04248647391796112,0.022887738421559334
1760107089883505000,6.6955048828125,0.008820655755698681,-0.03140639141201973,-0.014897989109158516
1760107089893569800,6.70556982421875,-0.002645584288984537,-0.0059654805809259415,-0.049261290580034256
1760107089903635700,6.7156357421875,0.00041438787593506277,0.014476411044597626,-0.058154381811618805
1760107089913702000,6.725701904296875,0.0087205208837986,0.02474289759993553,-0.0374206081032753
1760107089923767800,6.735767822265625,0.024936774745583534,0.024461135268211365,0.0033308155834674835
1760107089933833700,6.745833740234375,0.038838207721710205,0.009008941240608692,0.04728122800588608
1760107089943900000,6.75589990234375,0.04663727805018425,-0.01200925838202238,0.07616587728261948
1760107089953965800,6.7659658203125,0.04405347630381584,-0.017286578193306923,0.08746752887964249
1760107089964031700,6.77603173828125,0.036982517689466476,-0.01576032117009163,0.07503935694694519
1760107089974097000,6.786096923828125,0.03393000364303589,0.006895456463098526,0.053828343749046326
1760107089984162800,6.796162841796875,0.03753326088190079,0.025178324431180954,0.021399565041065216
1760107089994228700,6.806228759765625,0.03867575526237488,0.03459259867668152,0.00043116576853208244
1760107090004295000,6.816294921875,0.040820665657520294,0.0379047729074955,-0.007387875113636255
1760107090014360800,6.82636083984375,0.03706960380077362,0.030055636540055275,0.008008657954633236
1760107090024426800,6.8364267578125,0.028741367161273956,0.020898090675473213,0.038475219160318375
1760107090034492700,6.84649267578125,0.01860217936336994,0.009837184101343155,0.061466023325920105
1760107090044558800,6.856558837890625,0.013431386090815067,0.003139334265142679,0.06189345940947533
1760107090054623700,6.866623779296875,0.016462596133351326,0.005939914379268885,0.04900509491562843
1760107090064690000,6.87668994140625,0.022968165576457977,0.007101318798959255,0.02959570847451687
1760107090074755600,6.886755615234375,0.02238546684384346,0.02203179895877838,0.010898454114794731
1760107090084821800,6.89682177734375,0.02274605818092823,0.03610287606716156,-0.011924570426344872
1760107090094887700,6.9068876953125,0.017118532210588455,0.037633929401636124,-0.026064090430736542
1760107090104953900,6.916953857421875,0.009814281016588211,0.039380960166454315,-0.024452345445752144
1760107090115019800,6.927019775390625,0.003120425855740905,0.04179831221699715,-0.009301888756453991
1760107090125085200,6.937085205078125,0.00430233683437109,0.045217812061309814,0.014148309826850891
1760107090135150000,6.947150146484375,0.008377771824598312,0.037687189877033234,0.029836192727088928
1760107090145216000,6.957216064453125,0.023478960618376732,0.02791179157793522,0.039035551249980927
1760107090155282000,6.967281982421875,0.04247448965907097,0.02106933295726776,0.0375060960650444
1760107090165348000,6.97734814453125,0.0568731352686882,0.017969412729144096,0.025436917319893837
1760107090175414000,6.9874140625,0.06765148043632507,0.011857991106808186,0.007989749312400818
1760107090185480200,6.997480224609375,0.059175703674554825,0.010463560000061989,-0.015080682002007961
1760107090195546000,7.007546142578125,0.046788543462753296,0.019579026848077774,-0.040287766605615616
1760107090205612000,7.017612060546875,0.04212188720703125,0.041974347084760666,-0.04025421291589737
1760107090215677000,7.027677001953125,0.04734035208821297,0.050157442688941956,-0.025312013924121857
1760107090225743000,7.0377431640625,0.04749641194939613,0.032341159880161285,-0.008760201744735241
1760107090235809000,7.04780908203125,0.058105114847421646,0.01230646762996912,0.006007292307913303
1760107090245875200,7.057875244140625,0.06175204738974571,-0.0034498588647693396,0.010066215880215168
1760107090255941000,7.067941162109375,0.0560171976685524,-0.01404497865587473,-0.004296744242310524
1760107090266007000,7.078007080078125,0.038003839552402496,-0.002785400254651904,-0.03160932660102844
1760107090276073000,7.088072998046875,0.013546967878937721,0.023150859400629997,-0.059913136065006256
1760107090286139100,7.09813916015625,-0.003885552054271102,0.056168731302022934,-0.07600395381450653
1760107090296204000,7.1082041015625,-0.00598572101444006,0.08085250109434128,-0.07773740589618683
1760107090306270200,7.118270263671875,0.006070143077522516,0.08120537549257278,-0.06077732890844345
1760107090316336000,7.128336181640625,0.01961897499859333,0.0715828388929367,-0.030581610277295113
1760107090326402000,7.138402099609375,0.02479402907192707,0.059363991022109985,0.0019867182709276676
1760107090336468000,7.148468017578125,0.020866399630904198,0.03732207044959068,0.017131581902503967
1760107090346534000,7.158533935546875,0.006000900641083717,0.015102786011993885,0.006350839976221323
1760107090356600000,7.16860009765625,-0.003772367723286152,-0.010805776342749596,-0.03550100326538086
1760107090366666000,7.178666015625,0.0028610338922590017,-0.013080115430057049,-0.06951889395713806
1760107090376731000,7.18873095703125,0.022467758506536484,0.017595238983631134,-0.06733616441488266
1760107090386797000,7.198797119140625,0.04222921282052994,0.05669869855046272,-0.03154008463025093
1760107090396863000,7.208863037109375,0.05393647029995918,0.0935153067111969,0.019210180267691612
1760107090406929000,7.218928955078125,0.05839007347822189,0.12008992582559586,0.06114191561937332
1760107090416995000,7.2289951171875,0.06930450350046158,0.12376002222299576,0.07642633467912674
1760107090427061000,7.23906103515625,0.0740278884768486,0.09339865297079086,0.06705786287784576
1760107090437127200,7.249127197265625,0.07921279966831207,0.05891711264848709,0.03272758796811104
1760107090447193000,7.259193115234375,0.07896751910448074,0.03594042360782623,-0.016834374517202377
1760107090457258000,7.269258056640625,0.07331176102161407,0.03822621330618858,-0.0530666783452034
1760107090467324000,7.279323974609375,0.06642109900712967,0.060390904545784,-0.06534438580274582
1760107090477390000,7.28939013671875,0.07757122069597244,0.08984094113111496,-0.03930612653493881
1760107090487456000,7.2994560546875,0.09059354662895203,0.0916481614112854,0.00009214537567459047
1760107090497522200,7.309522216796875,0.11086153984069824,0.07174369692802429,0.03513854742050171
1760107090507588000,7.319588134765625,0.12700562179088593,0.0453331284224987,0.055685099214315414
1760107090517654000,7.329654052734375,0.13564331829547882,0.03768159821629524,0.045589324086904526
1760107090527720000,7.339719970703125,0.12638111412525177,0.0477193184196949,0.010902182199060917
1760107090537785000,7.34978515625,0.10922342538833618,0.0730997771024704,-0.0398414209485054
1760107090547851000,7.35985107421875,0.09402556717395782,0.09047050774097443,-0.08193401247262955
1760107090557917200,7.369917236328125,0.0956016257405281,0.08467121422290802,-0.10776481032371521
1760107090567983000,7.379983154296875,0.10613149404525757,0.0692315325140953,-0.09801258146762848
1760107090578049000,7.390049072265625,0.12652571499347687,0.03508980944752693,-0.053588125854730606
1760107090588115000,7.400114990234375,0.14593377709388733,0.021763086318969727,0.011071559973061085
1760107090598181000,7.41018115234375,0.16314205527305603,0.028535770252346992,0.08273642510175705
1760107090608247000,7.4202470703125,0.17729808390140533,0.036856550723314285,0.11878204345703125
1760107090618312200,7.430312255859375,0.1787409782409668,0.037327397614717484,0.11006658524274826
1760107090628378000,7.440378173828125,0.17845788598060608,0.0363612025976181,0.06669007986783981
1760107090638444000,7.450444091796875,0.17367511987686157,0.03782833740115166,0.02045094594359398
1760107090648510000,7.460510009765625,0.1602376103401184,0.0378941185772419,-0.023034479469060898
1760107090658576100,7.470576171875,0.144878089427948,0.04258767515420914,-0.04861973226070404
1760107090668642000,7.48064208984375,0.12662851810455322,0.0448383130133152,-0.04891720786690712
1760107090678708000,7.4907080078125,0.11434894800186157,0.03352919965982437,-0.033844515681266785
1760107090688774100,7.500774169921875,0.10808758437633514,0.018983811140060425,-0.0062126219272613525
1760107090698839000,7.510839111328125,0.09873882681131363,0.014478541910648346,0.0210669357329607
1760107090708905000,7.520905029296875,0.09233232587575912,0.027727767825126648,0.043112583458423615
1760107090718971100,7.53097119140625,0.08208394795656204,0.04399648681282997,0.03640434518456459
1760107090729037000,7.541037109375,0.07381723076105118,0.05824626237154007,0.008706405758857727
1760107090739103000,7.55110302734375,0.07627586275339127,0.0683353841304779,-0.03392387926578522
1760107090749169200,7.561169189453125,0.0738702267408371,0.07573630660772324,-0.06447140127420425
1760107090759235000,7.571235107421875,0.06726878881454468,0.0643603503704071,-0.07556160539388657
1760107090769301000,7.581301025390625,0.0569293275475502,0.05158542841672897,-0.07677147537469864
1760107090779366100,7.5913662109375,0.043592482805252075,0.044800762087106705,-0.05908755585551262
1760107090789432000,7.60143212890625,0.04198393598198891,0.03750929236412048,-0.030350182205438614
1760107090799498000,7.611498046875,0.05154867842793465,0.040524788200855255,0.002540122950449586
1760107090809564200,7.621564208984375,0.0577666275203228,0.05185334384441376,0.026187662035226822
1760107090819630000,7.631630126953125,0.06419416517019272,0.05847236514091492,0.03201066330075264
1760107090829696000,7.641696044921875,0.07861465215682983,0.07720077782869339,0.023560453206300735
1760107090839762000,7.651761962890625,0.08059284836053848,0.09475819766521454,0.012908607721328735
1760107090849828000,7.661828125,0.07988790422677994,0.0939539223909378,-0.011390339583158493
1760107090859893000,7.67189306640625,0.07264278084039688,0.07342840731143951,-0.024717863649129868
1760107090869959200,7.681959228515625,0.05976053699851036,0.04273734241724014,-0.030643662437796593
1760107090880025000,7.692025146484375,0.043359190225601196,0.016284696757793427,-0.028310200199484825
1760107090890091000,7.702091064453125,0.02690458483994007,-0.004775580484420061,-0.02113085240125656
1760107090900157000,7.712156982421875,0.011667841114103794,-0.014006629586219788,-0.014237791299819946
1760107090910223000,7.72222314453125,0.0013670006301254034,-0.009266202338039875,-0.01212830189615488
1760107090920289000,7.7322890625,-0.00341550400480628,0.016145413741469383,-0.017347032204270363
1760107090930355200,7.742355224609375,0.0012961605098098516,0.04470115900039673,-0.02756345085799694
1760107090940420000,7.752420166015625,0.00897032581269741,0.048709750175476074,-0.03178003430366516
1760107090950486000,7.762486083984375,0.0079708406701684,0.042987413704395294,-0.04404895007610321
1760107090960552000,7.772552001953125,0.002549177734181285,0.024539697915315628,-0.04301537573337555
1760107090970618000,7.7826181640625,-0.00015206649550236762,-0.004808870144188404,-0.030353112146258354
1760107090980684000,7.79268408203125,-0.003947603516280651,-0.03466077521443367,-0.017907094210386276
1760107090990750000,7.80275,-0.0110443951562047,-0.04787750914692879,-0.00475427508354187
1760107091000816000,7.812816162109375,-0.015110243111848831,-0.03562697023153305,0.01004943810403347
1760107091010882000,7.822882080078125,-0.01979154720902443,-0.02052737958729267,0.026619359850883484
1760107091020947000,7.832947021484375,-0.028560005128383636,0.002831739140674472,0.04200337454676628
1760107091031013000,7.84301318359375,-0.03370150551199913,-0.0004247741890139878,0.04554058611392975
1760107091041079000,7.8530791015625,-0.035700473934412,-0.024115988984704018,0.03208762779831886
1760107091051145000,7.86314501953125,-0.030361101031303406,-0.04206090047955513,0.01733637973666191
1760107091061211100,7.873211181640625,-0.02178545668721199,-0.03711860626935959,-0.0007784419576637447
1760107091071277000,7.883277099609375,-0.013729927130043507,-0.022604910656809807,-0.004010454285889864
1760107091081343000,7.893343017578125,-0.011894476599991322,-0.0046876962296664715,-0.000886566296685487
1760107091091408100,7.903408203125,-0.020785173401236534,0.008099738508462906,0.01047554425895214
1760107091101474000,7.91347412109375,-0.028301944956183434,0.0004974784678779542,0.022949790582060814
1760107091111540000,7.9235400390625,-0.03136591240763664,-0.019759856164455414,0.027941886335611343
1760107091121606400,7.9336064453125,-0.017947042360901833,-0.03122742846608162,0.032231707125902176
1760107091131672300,7.94367236328125,-0.0028903286438435316,-0.028256405144929886,0.0448143444955349
1760107091141738500,7.953738525390625,0.010859837755560875,-0.07006163895130157,0.06226097792387009
1760107091151804400,7.963804443359375,0.005636047571897507,-0.08778258413076401,0.10249841213226318
1760107091161870600,7.97387060546875,-0.0021813951898366213,-0.048646897077560425,0.12453500181436539
1760107091171935200,7.983935302734375,-0.0075724320486187935,-0.042573027312755585,0.11670903861522675
1760107091182001400,7.99400146484375,-0.005504753906279802,-0.032160867005586624,0.07388860732316971
1760107091192067300,8.0040673828125,0.003838414093479514,0.0005941512063145638,0.018615495413541794
1760107091202133500,8.014133544921876,0.01703251339495182,0.005620068870484829,-0.028311531990766525
1760107091212199400,8.024199462890625,0.019600600004196167,-0.013830328360199928,-0.03434385731816292
1760107091222265600,8.034265625,0.017237842082977295,-0.016752881929278374,-0.0030447919853031635
1760107091232331500,8.04433154296875,0.005982525181025267,-0.009197493083775043,0.04577308148145676
1760107091242397200,8.054397216796875,-0.006350839976221323,-0.020854149013757706,0.08585498481988907
1760107091252462300,8.06446240234375,-0.011506454087793827,-0.040047552436590195,0.1038166731595993
1760107091262528500,8.074528564453125,-0.01702372543513775,-0.04911801218986511,0.09370704740285873
1760107091272594400,8.084594482421876,-0.018504442647099495,-0.05210208147764206,0.06593587249517441
1760107091282660600,8.09466064453125,-0.020130833610892296,-0.03639529272913933,0.03407541289925575
1760107091292726500,8.1047265625,-0.028751486912369728,0.00029827404068782926,0.007749265991151333
1760107091302792200,8.114792236328125,-0.042146120220422745,0.0201587975025177,-0.019408585503697395
1760107091312858400,8.1248583984375,-0.05006902664899826,0.02292262576520443,-0.040773794054985046
1760107091322924300,8.13492431640625,-0.057381533086299896,-0.005821936298161745,-0.04716138541698456
1760107091332989400,8.144989501953125,-0.052800364792346954,-0.051179565489292145,-0.034211501479148865
1760107091343055400,8.155055419921876,-0.03921771049499512,-0.07798800617456436,-0.006593454163521528
1760107091353121500,8.16512158203125,-0.03244129568338394,-0.07513123750686646,0.031916920095682144
1760107091363187200,8.175187255859376,-0.030230605974793434,-0.04897499829530716,0.058269698172807693
1760107091373253400,8.18525341796875,-0.04270858317613602,-0.01613076590001583,0.07247739285230637
1760107091383319300,8.1953193359375,-0.06692736595869064,0.023073093965649605,0.06474997103214264
1760107091393385500,8.205385498046875,-0.09323327243328094,0.03516038507223129,0.037334322929382324
1760107091403451400,8.215451416015625,-0.11376331746578217,0.02154710330069065,-0.008349808864295483
1760107091413516500,8.2255166015625,-0.11896660178899765,-0.00896926037967205,-0.04825834184885025
1760107091423582200,8.235582275390625,-0.10888972878456116,-0.03399818018078804,-0.06774016469717026
1760107091433648400,8.2456484375,-0.09320397675037384,-0.05236466974020004,-0.07498688995838165
1760107091443714300,8.25571435546875,-0.07366649806499481,-0.10877574980258942,-0.06470416486263275
1760107091453780500,8.265780517578126,-0.0641813799738884,-0.1629420518875122,-0.03398513048887253
1760107091463846400,8.275846435546875,-0.06637796014547348,-0.1441691517829895,0.004825647920370102
1760107091473912600,8.28591259765625,-0.07511498779058456,-0.08887394517660141,0.029468676075339317
1760107091483978500,8.295978515625,-0.08090469986200333,-0.05899327993392944,0.02209358476102352
1760107091494043400,8.30604345703125,-0.07554296404123306,-0.008046475239098072,-0.0193108469247818
1760107091504109300,8.316109375,-0.056358348578214645,0.02165602706372738,-0.06737611442804337
1760107091514175500,8.326175537109375,-0.029224464669823647,0.013585849665105343,-0.10720954090356827
1760107091524241400,8.336241455078126,-0.008342618122696877,0.0037763623986393213,-0.12442261725664139
1760107091534307600,8.3463076171875,0.002263953210785985,-0.01549267303198576,-0.11238379776477814
1760107091544373500,8.35637353515625,0.004303934518247843,-0.04882266744971275,-0.0732441172003746
1760107091554439400,8.366439453125,0.0013904364313930273,-0.0791507437825203,-0.02893471159040928
1760107091564505300,8.37650537109375,-0.008703743107616901,-0.09482771158218384,0.016681775450706482
1760107091574570500,8.386570556640624,-0.011868377216160297,-0.08483579754829407,0.0305792149156332
1760107091584636400,8.396636474609375,-0.012210060842335224,-0.05513782054185867,0.023900538682937622
1760107091594702600,8.40670263671875,-0.0033390712924301624,-0.01811934821307659,0.014426076784729958
1760107091604768500,8.4167685546875,0.011022823862731457,0.0038187066093087196,0.009689112193882465
1760107091614834400,8.42683447265625,0.012571185827255249,0.01107475534081459,0.005150287412106991
1760107091624900400,8.436900390625,0.011258247308433056,0.006794522982090712,0.0016474314033985138
1760107091634966300,8.44696630859375,0.007830758579075336,-0.011374893598258495,0.0014919028617441654
1760107091645031400,8.457031494140624,-0.008143413811922073,-0.024595890194177628,0.01369530614465475
1760107091655097600,8.46709765625,-0.0285288468003273,-0.03465837985277176,0.029635922983288765
1760107091665163500,8.47716357421875,-0.0473020002245903,-0.03214168921113014,0.0470050573348999
1760107091675229200,8.487229248046875,-0.057019345462322235,-0.008382831700146198,0.06447779387235641
1760107091685295400,8.49729541015625,-0.05750323832035065,0.017313743010163307,0.0718664675951004
1760107091695361300,8.507361328125,-0.056900300085544586,0.0310995951294899,0.06330014020204544
1760107091705427500,8.517427490234375,-0.060747768729925156,0.03436356782913208,0.04289926216006279
1760107091715493400,8.527493408203124,-0.06118053197860718,0.02160569280385971,0.026983946561813354
1760107091725558500,8.53755859375,-0.0648953765630722,-0.005790511146187782,0.018485799431800842
1760107091735624200,8.547624267578126,-0.07276874780654907,-0.038170021027326584,0.00475400872528553
1760107091745690400,8.5576904296875,-0.07979283481836319,-0.06279121339321136,-0.0017025588313117623
1760107091755756300,8.56775634765625,-0.08081868290901184,-0.06381386518478394,-0.006338323466479778
1760107091765822500,8.577822509765625,-0.07650543004274368,-0.06404343247413635,-0.011444668285548687
1760107091775888400,8.587888427734375,-0.07778774201869965,-0.061285994946956635,-0.027054786682128906
1760107091785954600,8.59795458984375,-0.08121789246797562,-0.04619386047124863,-0.038531944155693054
1760107091796020500,8.6080205078125,-0.08115557581186295,-0.027249731123447418,-0.044735778123140335
1760107091806085400,8.61808544921875,-0.07433175295591354,-0.004811000544577837,-0.041847582906484604
1760107091816151300,8.6281513671875,-0.06377951055765152,0.011893144808709621,-0.02629578672349453
1760107091826217500,8.638217529296876,-0.055150337517261505,0.010160758160054684,-0.0089953588321805
1760107091836283400,8.648283447265625,-0.03767786920070648,-0.011207913048565388,0.016175774857401848
1760107091846349600,8.658349609375,-0.02881886437535286,-0.03208523243665695,0.03310149535536766
1760107091856415500,8.66841552734375,-0.02648460492491722,-0.04836087301373482,0.0430167093873024
1760107091866481400,8.6784814453125,-0.027236947789788246,-0.054433681070804596,0.043849214911460876
1760107091876547300,8.68854736328125,-0.039394278079271317,-0.04863837733864784,0.03249722346663475
1760107091886612500,8.698612548828125,-0.05910566449165344,-0.03062635287642479,0.011155981570482254
1760107091896678400,8.708678466796876,-0.0743168443441391,-0.007028614636510611,-0.009521067142486572
1760107091906744600,8.71874462890625,-0.0861537903547287,0.022399848327040672,-0.0232270248234272
1760107091916810500,8.728810546875,-0.08890936523675919,0.03308657929301262,-0.03843607380986214
1760107091926876400,8.73887646484375,-0.07549449056386948,0.023479759693145752,-0.04349767789244652
1760107091936942300,8.7489423828125,-0.0485459640622139,0.003582217963412404,-0.045108091086149216
1760107091947008300,8.75900830078125,-0.021013937890529633,-0.009311476722359657,-0.032465264201164246
1760107091957073400,8.769073486328125,-0.010358365252614021,-0.007474960293620825,-0.009541839361190796
1760107091967139600,8.7791396484375,-0.01648310199379921,-0.00561101408675313,0.0025393241085112095
1760107091977205500,8.78920556640625,-0.030234334990382195,-0.004370247479528189,0.007922371849417686
1760107091987271400,8.799271484375,-0.043002862483263016,0.0024671524297446012,0.0027212179265916348
1760107091997337300,8.80933740234375,-0.049253299832344055,0.016948090866208076,-0.005184642039239407
1760107092007403300,8.8194033203125,-0.04897819459438324,0.02743135765194893,-0.02020993083715439
1760107092017469400,8.829469482421874,-0.04331285133957863,0.04418344050645828,-0.03291533887386322
1760107092027535400,8.839535400390625,-0.022944197058677673,0.05970966815948486,-0.04749215021729469
1760107092037600500,8.8496005859375,-0.004503405187278986,0.06155630573630333,-0.046238869428634644
1760107092047666400,8.85966650390625,0.011216169223189354,0.06150810047984123,-0.028546156361699104
1760107092057732400,8.869732421875,0.020661868155002594,0.054421164095401764,0.008700280450284481
1760107092067798300,8.87979833984375,0.014883874915540218,0.028568262234330177,0.037707164883613586
1760107092077864400,8.889864501953125,0.002680737990885973,0.0030866037122905254,0.05734984204173088
1760107092087930400,8.899930419921875,-0.005898635368794203,-0.013245231471955776,0.056048355996608734
1760107092097996500,8.90999658203125,-0.010329603217542171,-0.014896657317876816,0.038663238286972046
1760107092108062500,8.9200625,-0.015788016840815544,-0.011198592372238636,0.00467651104554534
1760107092118127400,8.93012744140625,-0.014651646837592125,-0.003923634998500347,-0.03308285027742386
1760107092128193300,8.940193359375,-0.01720721647143364,0.015271631069481373,-0.057435061782598495
1760107092138259500,8.950259521484375,-0.02257028967142105,0.03567277640104294,-0.05386482924222946
1760107092148325400,8.960325439453126,-0.03350416570901871,0.044086236506700516,-0.05107437074184418
1760107092158391600,8.9703916015625,-0.04372324422001839,0.04217728227376938,-0.03466583415865898
1760107092168457500,8.98045751953125,-0.040223587304353714,0.031327031552791595,-0.02142513170838356
1760107092178523600,8.990523681640624,-0.035168372094631195,0.01739656738936901,-0.009271794930100441
1760107092188589300,9.00058935546875,-0.03934314474463463,0.006885070353746414,-0.01477441843599081
1760107092198654500,9.010654541015626,-0.04019295796751976,0.00872158631682396,-0.02323395013809204
1760107092208720400,9.020720458984375,-0.04495948553085327,0.03987710922956467,-0.03008413314819336
1760107092218786600,9.03078662109375,-0.048878591507673264,0.11509542912244797,-0.034270357340574265
1760107092228852500,9.0408525390625,-0.04261031001806259,0.13013216853141785,-0.042807117104530334
1760107092238918700,9.050918701171875,-0.029831930994987488,0.09679125994443893,-0.03611033409833908
1760107092248984300,9.060984375,-0.017547568306326866,0.06377338618040085,-0.017766213044524193
1760107092259050500,9.071050537109375,-0.006914098747074604,0.01685594581067562,0.017183780670166016
1760107092269115400,9.081115478515626,-0.011542405933141708,-0.026093918830156326,0.05751069635152817
1760107092279181600,9.091181640625,-0.028969332575798035,-0.026249447837471962,0.08576017618179321
1760107092289247500,9.10124755859375,-0.04462791979312897,-0.013093697838485241,0.0895080417394638
1760107092299313700,9.111313720703125,-0.03857136145234108,0.008259793743491173,0.08564592897891998
1760107092309379300,9.12137939453125,-0.027402862906455994,0.02377856709063053,0.07378873974084854
1760107092319445200,9.1314453125,-0.013284379616379738,0.03364770859479904,0.05405258387327194
1760107092329511400,9.141511474609375,0.0010311759542673826,0.03798706457018852,0.038114629685878754
1760107092339577300,9.151577392578124,0.005799832288175821,0.042153578251600266,0.01907755434513092
1760107092349642500,9.161642578125,0.002469549188390374,0.05817515403032303,0.012408199720084667
1760107092359708700,9.171708740234376,-0.003619768423959613,0.07210375368595123,0.017726000398397446
1760107092369774300,9.1817744140625,-0.014858041889965534,0.06319361925125122,0.027038542553782463
1760107092379840300,9.19184033203125,-0.023519175127148628,0.04133598878979683,0.03206659108400345
1760107092389906400,9.201906494140625,-0.01721493899822235,0.004116714466363192,0.026694195345044136
1760107092399972400,9.211972412109375,-0.011907791718840599,-0.02960582822561264,0.01269608736038208
1760107092410038500,9.22203857421875,-0.004238420631736517,-0.023486683145165443,-0.022607307881116867
1760107092420104400,9.2321044921875,0.0003478088474366814,0.011393269523978233,-0.06599686294794083
1760107092430169300,9.24216943359375,0.00552259711548686,0.0389319509267807,-0.0990498811006546
1760107092440235300,9.2522353515625,0.01034744642674923,0.05518575757741928,-0.11129110306501389
1760107092450301400,9.262301513671876,0.01684156432747841,0.051233626902103424,-0.09944988787174225
1760107092460367400,9.272367431640625,0.01655207946896553,0.01967942900955677,-0.06800062209367752
1760107092470433500,9.28243359375,0.014517690055072308,-0.005538309924304485,-0.040834780782461166
1760107092480499500,9.29249951171875,0.009940781630575657,0.0021755362395197153,-0.017309747636318207
1760107092490565600,9.302565673828125,0.002748914761468768,0.02851180173456669,-0.004907939583063126
1760107092500630300,9.31263037109375,-0.00036724991514347494,0.06667383760213852,-0.001985120354220271
1760107092510696400,9.322696533203125,0.012447615154087543,0.0787547305226326,-0.01305454969406128
1760107092520762400,9.332762451171876,0.025112010538578033,0.052265603095293045,-0.029110480099916458
1760107092530828500,9.34282861328125,0.032050345093011856,0.0059966398403048515,-0.042322155088186264
1760107092540894500,9.35289453125,0.02793096750974655,-0.04068750888109207,-0.053278665989637375
1760107092550960600,9.362960693359375,0.010506968945264816,-0.061953648924827576,-0.04827325791120529
1760107092561026300,9.3730263671875,-0.01059378869831562,-0.04162547364830971,-0.02454209513962269
1760107092571092500,9.383092529296874,-0.017799770459532738,-0.009149822406470776,-0.00512685114517808
1760107092581157400,9.393157470703125,-0.018576081842184067,0.02166295051574707,0.001192829804494977
1760107092591223600,9.4032236328125,0.002121474128216505,0.04235384985804558,-0.0029313412960618734
1760107092601289500,9.41328955078125,0.02520602010190487,0.04273547977209091,-0.007846738211810589
1760107092611355600,9.423355712890626,0.040223851799964905,0.030604248866438866,-0.0013065468519926071
1760107092621421300,9.43342138671875,0.038788408041000366,0.011167166754603386,0.010806042701005936
1760107092631487500,9.443487548828125,0.02466939389705658,0.005250954534858465,0.029714219272136688
1760107092641553400,9.453553466796874,0.012240687385201454,0.008988967165350914,0.052506882697343826
1760107092651618600,9.46361865234375,0.00640836451202631,0.012264922261238098,0.061155766248703
1760107092661684500,9.4736845703125,0.006548712961375713,0.017353955656290054,0.04983706399798393
1760107092671750700,9.483750732421875,0.01359597034752369,0.018087124451994896,0.019302858039736748
1760107092681816300,9.49381640625,0.02574530988931656,0.02129463665187359,-0.009968744590878487
1760107092691882500,9.503882568359375,0.034458376467227936,0.03274250030517578,-0.04102732613682747
1760107092701948400,9.513948486328125,0.03669117018580437,0.03809412196278572,-0.05090765655040741
1760107092712014300,9.524014404296874,0.03242318704724312,0.030073480680584908,-0.04459569603204727
1760107092722080500,9.53408056640625,0.022488797083497047,0.0003062635369133204,-0.021568408235907555
1760107092732145700,9.544145751953126,0.015470302663743496,-0.030068952590227127,0.004150802735239267
1760107092742211300,9.55421142578125,0.011720838025212288,-0.048323854804039,0.019303124397993088
1760107092752277200,9.56427734375,0.005916744936257601,-0.0382658950984478,0.015091867186129093
1760107092762343400,9.574343505859375,-0.002710299100726843,0.0009432916413061321,0.00020293287525419146
1760107092772409300,9.584409423828125,-0.0075639099813997746,0.04513871669769287,-0.01913987286388874
1760107092782475500,9.5944755859375,-0.012981045991182327,0.06203008070588112,-0.03205780312418938
1760107092792541400,9.60454150390625,-0.010484598577022552,0.04374135658144951,-0.041304830461740494
1760107092802607600,9.614607666015624,-0.004057858604937792,0.009383647702634335,-0.035354260355234146
1760107092812672300,9.62467236328125,0.002597114769741893,-0.020810740068554878,-0.014886271208524704
1760107092822738400,9.634738525390626,0.0009603358921594918,-0.04169844463467598,0.00717695290222764
1760107092832804400,9.644804443359375,-0.007649131119251251,-0.03844832256436348,0.02793309837579727
1760107092842870500,9.65487060546875,-0.017058612778782845,-0.014195181429386139,0.0391191728413105
1760107092852936400,9.6649365234375,-0.016800284385681152,0.00726377172395587,0.03610048070549965
1760107092863002600,9.675002685546875,-0.011255051009356976,0.02239159122109413,0.029763754457235336
1760107092873068500,9.685068603515624,0.004010720644146204,0.026135729625821114,0.033073265105485916
1760107092883133400,9.695133544921875,0.015729693695902824,0.023138076066970825,0.03389671444892883
1760107092893199400,9.705199462890626,0.015301458537578583,0.009951167739927769,0.030719030648469925
1760107092903265500,9.715265625,0.005041896365582943,0.0022562299855053425,0.023303724825382233
1760107092913331500,9.72533154296875,-0.006345780100673437,0.0016048208344727755,0.018995795398950577
1760107092923397600,9.735397705078125,-0.015214106999337673,0.00726377172395587,0.013623400591313839
1760107092933463300,9.74546337890625,-0.017916150391101837,0.00019893812714144588,0.009697102010250092
1760107092943529500,9.755529541015624,-0.02316577360033989,-0.011965849436819553,0.0049649314023554325
1760107092953595400,9.765595458984375,-0.020299412310123444,-0.009679791517555714,0.0009472863748669624
1760107092963660500,9.77566064453125,-0.014677213504910469,-0.005256813485175371,-0.0059814597479999065
1760107092973726500,9.7857265625,-0.008387093432247639,0.0014455638593062758,-0.00361683894880116
1760107092983792600,9.795792724609376,-0.0032924660481512547,0.0083085298538208,-0.0003195793251506984
1760107092993858300,9.8058583984375,0.0012665993999689817,0.008245679549872875,0.008297078311443329
1760107093003924500,9.815924560546875,0.00004793690095539205,0.009719738736748695,0.02076679654419422
1760107093013990400,9.825990478515624,0.0013366405619308352,0.011696603149175644,0.03032914362847805
1760107093024056300,9.836056396484375,0.002162486780434847,0.01721920073032379,0.029933398589491844
1760107093034121500,9.84612158203125,0.003385144053027034,0.01059005968272686,0.028113126754760742
1760107093044187600,9.856187744140625,0.0016378440195694566,-0.007397196255624294,0.014594389125704765
1760107093054253300,9.86625341796875,-0.0028780782595276833,-0.020907677710056305,0.008383897133171558
1760107093064319500,9.876319580078125,-0.008677910082042217,-0.02081473357975483,0.0046754456125199795
1760107093074385400,9.886385498046875,-0.01744610257446766,-0.010977284051477909,0.018102038651704788
1760107093084451300,9.896451416015625,-0.023747939616441727,0.008755674585700035,0.034341197460889816
1760107093094517500,9.906517578125,-0.025799639523029327,0.019234947860240936,0.04902400076389313
1760107093104583400,9.91658349609375,-0.026870496571063995,0.021567609161138535,0.044442031532526016
1760107093114648300,9.9266484375,-0.018306834623217583,0.01847541332244873,0.03158269450068474
1760107093124715000,9.936715087890626,-0.008813465014100075,0.011620170436799526,0.013894776813685894
1760107093134781200,9.94678125,0.004038683604449034,0.006461627781391144,0.006003564223647118
1760107093144847000,9.95684716796875,0.016948889940977097,-0.004188885912299156,0.009388442151248455
1760107093154913000,9.9669130859375,0.016865799203515053,-0.01176105160266161,0.01883227750658989
1760107093164979000,9.97697900390625,0.012569854035973549,-0.013314473442733288,0.026065688580274582
1760107093175045000,9.987045166015625,0.0041057956404984,-0.011243865825235844,0.028869198635220528
1760107093185111000,9.997111083984375,-0.0026013758033514023,-0.008981510996818542,0.0213652104139328
1760107093195176200,10.00717626953125,-0.009892578236758709,-0.006214486435055733,0.004111388232558966
1760107093205241900,10.017241943359375,-0.012239355593919754,0.010460097342729568,-0.01395522989332676
1760107093215308000,10.02730810546875,-0.0008351673022843897,0.03482828661799431,-0.02207813784480095
1760107093225374000,10.0373740234375,0.011620170436799526,0.04421592876315117,-0.027457723394036293
1760107093235440000,10.047440185546876,0.026694461703300476,0.03592417761683464,-0.01876596361398697
1760107093245506000,10.057506103515625,0.03218163922429085,0.013115269131958485,-0.005830991081893444
1760107093255572000,10.067572021484375,0.029028188437223434,-0.014368819072842598,0.001493234420195222
1760107093265636900,10.077636962890624,0.015727298334240913,-0.03653191030025482,0.012264389544725418
1760107093275703000,10.087703125,0.004988100845366716,-0.04484976455569267,0.01293337531387806
1760107093285769000,10.09776904296875,-0.0031308121979236603,-0.02887558937072754,-0.0031188279390335083
1760107093295835100,10.107835205078125,0.0026322684716433287,-0.0005893575726076961,-0.015747537836432457
1760107093305901000,10.117901123046876,0.01206944603472948,0.025611354038119316,-0.03225008025765419
1760107093315967000,10.127967041015625,0.01744876429438591,0.03635667636990547,-0.03212784230709076
1760107093326033200,10.138033203125,0.02473410777747631,0.037529267370700836,-0.014535533264279366
1760107093336099000,10.14809912109375,0.01902242749929428,0.01720215566456318,0.007904794998466969
1760107093346164000,10.1581640625,0.014708904549479485,-0.005027781706303358,0.02725692093372345
1760107093356230100,10.168230224609376,0.008390288800001144,-0.01203722134232521,0.04087046906352043
1760107093366296000,10.178296142578125,0.00580648984760046,-0.006178800016641617,0.040406811982393265
1760107093376362000,10.188362060546876,0.003838680451735854,0.005270662251859903,0.031503066420555115
1760107093386428200,10.19842822265625,0.0083660539239645,0.02263660356402397,0.009641707874834538
1760107093396494000,10.208494140625,0.020560935139656067,0.032649289816617966,-0.0029917950741946697
1760107093406560000,10.21856005859375,0.03142343461513519,0.03419765084981918,-0.011040667071938515
1760107093416625000,10.228625,0.029809560626745224,0.025979403406381607,-0.006627276539802551
1760107093426691000,10.238691162109374,0.018985675647854805,0.018798988312482834,0.0041406829841434956
1760107093436757000,10.248757080078125,0.005278385244309902,0.019950006157159805,0.021734323352575302
1760107093446823200,10.2588232421875,-0.001386441639624536,0.021261345595121384,0.03657558932900429
1760107093456889000,10.26888916015625,-0.004548412747681141,0.024394555017352104,0.042156774550676346
1760107093466955000,10.278955078125,-0.0008841694798320532,0.024229438975453377,0.03321387991309166
1760107093477021000,10.28902099609375,0.009823868982493877,0.026552781462669373,0.013582121580839157
1760107093487087000,10.299087158203125,0.013707556761801243,0.01878354139626026,-0.017230385914444923
1760107093497152000,10.309152099609374,0.015668975189328194,0.017767811194062233,-0.0346812829375267
1760107093507218200,10.31921826171875,0.009784453548491001,0.017773937433958054,-0.028493959456682205
1760107093517284000,10.3292841796875,0.002960103563964367,0.015515043400228024,-0.011234811507165432
1760107093527350000,10.33935009765625,-0.004988899454474449,0.01740029640495777,0.0014357101172208786
1760107093537416000,10.349416015625,-0.0033878071699291468,0.020177440717816353,0.015724102035164833
1760107093547482000,10.359482177734375,0.007420099340379238,0.020130302757024765,0.022727949544787407
1760107093557548000,10.369548095703125,0.015976835042238235,0.011491007171571255,0.020297814160585403
1760107093567613200,10.37961328125,0.019512714818120003,0.002490055514499545,0.009435313753783703
1760107093577678800,10.389678955078125,0.011465707793831825,0.008686965331435204,-0.014192517846822739
1760107093587745000,10.3997451171875,0.003171025775372982,0.023675501346588135,-0.03093261644244194
1760107093597811000,10.40981103515625,-0.010664362460374832,0.03472229465842247,-0.044145356863737106
1760107093607877000,10.419877197265626,-0.019357984885573387,0.0415855273604393,-0.042519763112068176
1760107093617943000,10.429943115234375,-0.01985519751906395,0.04813636839389801,-0.021890118718147278
1760107093628009000,10.440009033203125,-0.00896686315536499,0.04947434365749359,-0.00042317630141042173
1760107093638075100,10.4500751953125,0.01010722853243351,0.040888309478759766,0.02431199699640274
1760107093648140000,10.46014013671875,0.019598202779889107,0.024507474154233932,0.04176555573940277
1760107093658206000,10.4702060546875,0.019160645082592964,0.0054389736615121365,0.045012217015028
1760107093668272000,10.480272216796875,0.008503739722073078,0.0011267834343016148,0.03328631818294525
1760107093678338000,10.490338134765626,-0.0012884372845292091,-0.0030328077264130116,0.01525591779500246
1760107093688404000,10.500404052734375,-0.010045177303254604,-0.006058957893401384,-0.00692155584692955
1760107093698470100,10.51047021484375,-0.008389756083488464,-0.00101146858651191,-0.026152241975069046
1760107093708536000,10.5205361328125,-0.006039516534656286,0.013403156772255898,-0.034923095256090164
1760107093718601000,10.53060107421875,0.00634897593408823,0.019475696608424187,-0.027822576463222504
1760107093728667100,10.540667236328124,0.01206651609390974,0.021513814106583595,-0.018432537093758583
1760107093738733000,10.550733154296875,0.01444232277572155,0.015508386306464672,-0.011690744198858738
1760107093748799000,10.560799072265626,0.017241837456822395,0.009914415888488293,-0.0008202536264434457
1760107093758865200,10.570865234375,0.02039502002298832,0.002082858234643936,-0.003608316881582141
1760107093768931000,10.58093115234375,0.01329663023352623,-0.006572681479156017,-0.009631055407226086
1760107093778997000,10.5909970703125,0.006380401086062193,-0.003704190719872713,-0.015002651140093803
1760107093789063000,10.60106298828125,0.01284682285040617,0.008187889121472836,-0.012438826262950897
1760107093799128000,10.611128173828124,0.013452691957354546,0.016629043966531754,-0.010554106906056404
1760107093809194000,10.621194091796875,0.01518960576504469,0.028366660699248314,-0.0047835698351264
1760107093819260200,10.63126025390625,0.014820490963757038,0.04283188655972481,0.0037854171823710203
1760107093829326000,10.641326171875,0.013402091339230537,0.04222974553704262,0.009518137201666832
1760107093839392000,10.65139208984375,0.01161457784473896,0.01937156729400158,0.014489194378256798
1760107093849458000,10.6614580078125,0.002374740783125162,-0.006711432244628668,0.015211709775030613
1760107093859524000,10.671524169921875,-0.004394481889903545,-0.019581956788897514,0.013640711084008217
1760107093869589000,10.681589111328124,-0.007685882970690727,-0.020504210144281387,0.017528660595417023
1760107093879655200,10.6916552734375,-0.00720518222078681,-0.007940215058624744,0.014510232955217361
1760107093889721000,10.70172119140625,-0.006071740761399269,0.006343383342027664,0.002448244020342827
1760107093899787000,10.711787109375,-0.0013174657942727208,0.018334265798330307,-0.013311278074979782
1760107093909853000,10.72185302734375,-0.0028993834275752306,0.021689049899578094,-0.03209082409739494
1760107093919919000,10.731919189453125,-0.011839348822832108,0.021095698699355125,-0.04490941762924194
1760107093929985000,10.741985107421876,-0.015424230135977268,0.027219902724027634,-0.050520963966846466
1760107093940051200,10.75205126953125,-0.015557121485471725,0.025047829374670982,-0.04532833397388458
1760107093950115800,10.76211572265625,-0.009975402615964413,0.008701612241566181,-0.03893887624144554
1760107093960182000,10.77218212890625,0.0010287790792062879,-0.0044171190820634365,-0.030309436842799187
1760107093970248000,10.782248046875,0.01116530317813158,-0.009471000172197819,-0.015994945541024208
1760107093980314000,10.792314208984376,0.01461702585220337,-0.0054626758210361,0.00022796659322921187
1760107093990380000,10.802380126953125,0.009371663443744183,0.009492038749158382,0.009272327646613121
1760107094000446200,10.8124462890625,0.00014807176194153726,0.019109778106212616,0.010820156894624233
1760107094010512100,10.82251220703125,0.0031169636640697718,0.018572352826595306,0.0031670311000198126
1760107094020577000,10.832576904296875,0.0065383268520236015,0.02514876239001751,-0.005203284323215485
1760107094030643000,10.842642822265624,0.0034847462084144354,0.030245253816246986,-0.024563133716583252
1760107094040709000,10.852709228515625,-0.000014647385796706658,0.02268027886748314,-0.03566452115774155
1760107094050775000,10.862775146484376,0.0019654128700494766,0.013334713876247406,-0.03594521805644035
1760107094060841000,10.872841064453125,0.0011619371362030506,0.001671932521276176,-0.03238670155405998
1760107094070907100,10.8829072265625,0.0006498112925328314,-0.019085543230175972,-0.013334980234503746
1760107094080973000,10.89297314453125,0.005467736162245274,-0.028139758855104446,0.0049372343346476555
1760107094091039000,10.9030390625,0.00621208967640996,-0.02774321474134922,0.010002033784985542
1760107094101104000,10.913104248046874,0.005793706979602575,-0.02538844756782055,0.011518704704940319
1760107094111170000,10.923170166015625,0.0022210762836039066,-0.0026812704745680094,0.0010181264951825142
1760107094121236000,10.933236083984376,0.0009147958480753005,0.029825273901224136,-0.01581891067326069
1760107094131301400,10.94330126953125,0.0024322650860995054,0.05080432444810867,-0.030414365231990814
1760107094141367600,10.953367431640626,0.008310394361615181,0.045699577778577805,-0.03265594691038132
1760107094151433500,10.96343359375,0.009354086592793465,0.020190754905343056,-0.02286696620285511
1760107094161499400,10.97349951171875,0.0075820195488631725,-0.004683168604969978,-0.00375985074788332
1760107094171564300,10.983564208984374,-0.0007129282457754016,-0.031674839556217194,0.00875301193445921
1760107094181630500,10.99363037109375,-0.013369334861636162,-0.03898521512746811,0.007010505069047213
1760107094191696400,11.0036962890625,-0.022588400170207024,-0.03248550370335579,-0.0000958738019107841
1760107094201762600,11.013762451171875,-0.02153538540005684,-0.009695503860712051,-0.01082814671099186
1760107094211828500,11.023828369140626,-0.01315015647560358,0.0101362569257617,-0.019124159589409828
1760107094221894400,11.033894287109375,-0.001862614881247282,0.024470722302794456,-0.020908210426568985
1760107094231960600,11.043960693359375,0.0062520368956029415,0.029266541823744774,-0.01739603467285633
1760107094242026500,11.054026611328124,0.005630987696349621,0.033544111996889114,-0.010610566474497318
1760107094252091400,11.06409130859375,0.003968109842389822,0.04428623989224434,-0.00045034053619019687
1760107094262157600,11.074157470703126,-0.002173938322812319,0.0510256327688694,0.009844641201198101
1760107094272223500,11.084223388671875,-0.004723116289824247,0.046125948429107666,0.020306337624788284
1760107094282289400,11.094289306640626,-0.005335377063602209,0.02527073584496975,0.02154896780848503
1760107094292355600,11.10435546875,-0.007379353046417236,-0.0010479538468644023,0.020000606775283813
1760107094302421500,11.11442138671875,-0.01176131796091795,-0.0236443430185318,0.019753731787204742
1760107094312487400,11.1244873046875,-0.016865000128746033,-0.02274179831147194,0.012130964547395706
1760107094322552300,11.13455224609375,-0.024586835876107216,-0.0023228090722113848,0.009816678240895271
1760107094332618500,11.144618408203126,-0.028441760689020157,0.03604482114315033,0.008714129216969013
1760107094342684400,11.154684326171875,-0.02298920601606369,0.05787155404686928,0.005966546013951302
1760107094352750600,11.16475048828125,-0.011475561186671257,0.06035441905260086,-0.0038836877793073654
1760107094362816500,11.17481640625,-0.009372995235025883,0.04795261099934578,-0.005708219483494759
1760107094372882400,11.18488232421875,-0.01696380414068699,0.03473880514502525,-0.00072597770486027
1760107094382948400,11.1949482421875,-0.028301944956183434,0.01684529334306717,0.0015574166318401694
1760107094393013500,11.205013427734375,-0.03506824001669884,-0.002490854589268565,0.003350256709381938
1760107094403079400,11.215079345703124,-0.03509620204567909,-0.01378052681684494,0.011988219805061817
1760107094413145600,11.2251455078125,-0.017136376351118088,-0.009490174241364002,0.019184347242116928
1760107094423211300,11.235211181640626,-0.0013374395202845335,0.003614708548411727,0.029875872656702995
1760107094433277400,11.24527734375,0.007387342397123575,0.018876219168305397,0.02177933044731617
1760107094443343400,11.25534326171875,0.007498662453144789,0.030848193913698196,0.008505604229867458
1760107094453409500,11.265409423828125,-0.0006540723843500018,0.04062812030315399,-0.0025590313598513603
1760107094463475500,11.275475341796875,-0.013762150891125202,0.041316013783216476,-0.009756490588188171
1760107094473540600,11.28554052734375,-0.016118248924613,0.03820251300930977,-0.001508414396084845
1760107094483606300,11.295606201171875,-0.01016688346862793,0.0246622022241354,0.010426009073853493
1760107094493672400,11.30567236328125,0.00826938170939684,0.01062095258384943,0.0316934809088707
1760107094503738400,11.31573828125,0.015981096774339676,-0.0037678403314203024,0.05005650967359543
1760107094513804500,11.325804443359376,0.01985120214521885,-0.015440475195646286,0.05348080024123192
1760107094523870500,11.335870361328125,0.014146978035569191,-0.012078766711056232,0.04463990405201912
1760107094533936400,11.345936279296875,0.0020698087755590677,0.008108792826533318,0.021020330488681793
1760107094544001300,11.356001220703124,-0.01284389290958643,0.03797907382249832,-0.009971939958631992
1760107094554067500,11.3660673828125,-0.017305754125118256,0.06033764407038689,-0.03979082033038139
1760107094564133400,11.37613330078125,-0.014005830511450768,0.05657752603292465,-0.056955162435770035
1760107094574199600,11.386199462890625,-0.009470467455685139,0.03864193335175514,-0.054434213787317276
1760107094584265500,11.396265380859376,-0.002002164488658309,0.009881925769150257,-0.03596439212560654
1760107094594331400,11.406331298828125,-0.003695935010910034,-0.026280872523784637,-0.01846715807914734
1760107094604397600,11.4163974609375,-0.008915997110307217,-0.04141455143690109,-0.003824033075943589
1760107094614463500,11.42646337890625,-0.006911169271916151,-0.03243623673915863,0.003876230912283063
1760107094624528400,11.4365283203125,-0.009913616813719273,-0.010381534695625305,-0.0029768813401460648
1760107094634594600,11.446594482421874,-0.00993332453072071,0.013383449986577034,-0.016475379467010498
1760107094644660500,11.456660400390625,-0.010394850745797157,0.033963561058044434,-0.033062078058719635
1760107094654726400,11.466726318359376,-0.007134342100471258,0.035591814666986465,-0.038543395698070526
1760107094664792600,11.47679248046875,-0.00040959418402053416,0.03466770052909851,-0.02924443781375885
1760107094674858500,11.4868583984375,0.003623496973887086,0.033616017550230026,-0.003153981640934944
1760107094684924400,11.49692431640625,0.008153000846505165,0.026573553681373596,0.0135067543014884
1760107094694989600,11.506989501953125,0.00897032581269741,0.015740348026156425,0.0280313678085804
1760107094705055500,11.517055419921874,0.013515808619558811,0.012631106190383434,0.03815484046936035
1760107094715121400,11.527121337890625,0.013290238566696644,0.0032149681355804205,0.039024632424116135
1760107094725187600,11.5371875,0.009693373925983906,0.002552639925852418,0.02310611866414547
1760107094735253500,11.54725341796875,0.00506826164200902,0.011376758106052876,0.008932242169976234
1760107094745319400,11.5573193359375,0.00689172837883234,0.022368421778082848,0.00009667274571256712
1760107094755385300,11.56738525390625,0.006895456463098526,0.028239361941814423,-0.005362274590879679
1760107094765450500,11.577450439453125,0.012681973166763783,0.03200080990791321,-0.004178766161203384
1760107094775516400,11.587516357421874,0.01919872872531414,0.03111504204571247,0.0001608549355296418
1760107094785582600,11.59758251953125,0.023931965231895447,0.022423017770051956,0.013244166038930416
1760107094795648300,11.607648193359376,0.023456856608390808,0.0024706146214157343,0.021709555760025978
1760107094805714400,11.61771435546875,0.01890524849295616,-0.00953864399343729,0.026635339483618736
1760107094815780400,11.6277802734375,0.016807209700345993,-0.008506668731570244,0.023541545495390892
1760107094825846500,11.637846435546875,0.013728328980505466,0.008755141869187355,0.012528308667242527
1760107094835911400,11.647911376953125,0.010872621089220047,0.024528512731194496,-0.007966047152876854
1760107094845977600,11.6579775390625,0.011685151606798172,0.026753051206469536,-0.025246500968933105
1760107094856043300,11.668043212890625,0.016945960000157356,0.022286396473646164,-0.03223623335361481
1760107094866109400,11.678109375,0.02094016969203949,0.021634189411997795,-0.030586937442421913
1760107094876175400,11.68817529296875,0.018505774438381195,0.006581203546375036,-0.01900937780737877
1760107094886241500,11.698241455078126,0.020805412903428078,-0.0033044503070414066,-0.00902545265853405
1760107094896307500,11.708307373046875,0.024337297305464745,-0.005276787560433149,0.009044094942510128
1760107094906373400,11.718373291015626,0.023914653807878494,-0.025005217641592026,0.02635171264410019
1760107094916438300,11.728438232421874,0.016471384093165398,-0.02851739525794983,0.04062146320939064
1760107094926504400,11.73850439453125,0.005005677696317434,0.01997450739145279,0.027306456118822098
1760107094936570400,11.7485703125,0.005594768561422825,0.02785586565732956,-0.0031550468411296606
1760107094946636500,11.758636474609375,0.008619320578873158,0.014121944084763527,-0.037099432200193405
1760107094956702500,11.768702392578126,0.014226872473955154,0.019764117896556854,-0.05341049283742905
1760107094966768400,11.778768310546875,0.019931895658373833,0.013709420338273048,-0.04487266764044762
1760107094976834600,11.78883447265625,0.0166143961250782,-0.010441455990076065,-0.0062493737787008286
1760107094986899500,11.7988994140625,0.0026439863722771406,-0.02749447524547577,0.030612770467996597
1760107094996965400,11.80896533203125,-0.010729876346886158,-0.03086497075855732,0.061053235083818436
1760107095007031600,11.819031494140624,-0.016335297375917435,-0.022238725796341896,0.06954818218946457
1760107095017097500,11.829097412109375,-0.011565576307475567,0.011523231863975525,0.06403091549873352
1760107095027163400,11.839163330078126,0.00024394555657636374,0.052323658019304276,0.05094600468873978
1760107095037229600,11.8492294921875,0.006734868045896292,0.09940461814403534,0.02490748092532158
1760107095047295500,11.85929541015625,0.007765245158225298,0.1416386216878891,0.002624278888106346
1760107095057360400,11.8693603515625,-0.02099050208926201,0.16132338345050812,-0.007791876792907715
1760107095067426600,11.879426513671875,-0.06136375665664673,0.14238324761390686,0.019431222230196
1760107095077492500,11.889492431640624,-0.10375489294528961,0.1297508031129837,0.07734325528144836
1760107095087558400,11.899558349609375,-0.14785204827785492,0.10969613492488861,0.11384400725364685
1760107095097624600,11.90962451171875,-0.1538148671388626,0.05267013609409332,0.11698494106531143
1760107095107690200,11.919690185546875,-0.1136741042137146,0.012870258651673794,0.10164513438940048
1760107095117756400,11.92975634765625,-0.05224376171827316,0.0359761118888855,0.062074288725852966
1760107095127821000,11.939821044921874,0.010713896714150906,0.08377984911203384,0.021808626130223274
1760107095137887000,11.949886962890625,0.04999419301748276,0.08625126630067825,0.007983624003827572
1760107095147953200,11.959953125,0.04138365760445595,0.04561062902212143,0.0065351310186088085
1760107095158019000,11.97001904296875,-0.002974218223243952,0.040770065039396286,-0.0028732845094054937
1760107095168085000,11.9800849609375,-0.04116980731487274,0.08645632863044739,-0.051540423184633255
1760107095178151200,11.990151123046875,-0.04999445751309395,0.1243927925825119,-0.12270727753639221
1760107095188217000,12.000217041015626,-0.03550126776099205,0.12729111313819885,-0.1785425841808319
1760107095198283300,12.010283203125,-0.007119162008166313,0.12629827857017517,-0.20673853158950806
1760107095208348200,12.02034814453125,0.024469124153256416,0.09495101124048233,-0.2026580423116684
1760107095218414000,12.0304140625,0.0036133769899606705,0.0791400894522667,0.03839665651321411
1760107095228480000,12.04047998046875,-0.04923705384135246,-0.12263111025094986,0.13953499495983124
1760107095238546200,12.050546142578124,-0.03586958348751068,-0.16167785227298737,0.17111235857009888
1760107095248612000,12.060612060546875,-0.0002772350562736392,-0.12232058495283127,0.14197124540805817
