time,seconds_elapsed,z,y,x
1760107083218631700,0.030631591796875,-0.04402767866849899,-0.04976852983236313,0.0027005146257579327
1760107083228696600,0.040696533203125,-0.04369087517261505,-0.04698492959141731,-0.0076604485511779785
1760107083238762500,0.050762451171875,-0.034436389803886414,-0.045787837356328964,-0.022912904620170593
1760107083248828700,0.06082861328125,-0.019890952855348587,-0.05105818063020706,-0.03388851135969162
1760107083258894600,0.07089453125,-0.009372797794640064,-0.06721451878547668,-0.04070034623146057
1760107083268960800,0.080960693359375,-0.0029346852097660303,-0.07025513052940369,-0.04611987993121147
1760107083279026700,0.091026611328125,-0.005713693797588348,-0.07082797586917877,-0.04628206789493561
1760107083289092900,0.1010927734375,-0.006005530711263418,-0.0704498365521431,-0.0442611426115036
1760107083299158500,0.111158447265625,-0.0012997251469641924,-0.08131340891122818,-0.052416808903217316
1760107083309224700,0.121224609375,0.004125118721276522,-0.09777487069368362,-0.05154747888445854
1760107083319289600,0.13128955078125,0.021034060046076775,-0.10377258062362671,-0.03990653529763222
1760107083329355800,0.141355712890625,0.03256065398454666,-0.08786644786596298,-0.028977317735552788
1760107083339421700,0.151421630859375,0.0360291562974453,-0.0695502907037735,-0.01796967349946499
1760107083349487600,0.161487548828125,0.04742567986249924,-0.05589359998703003,-0.002848802600055933
1760107083359553500,0.171553466796875,0.054770417511463165,-0.047616228461265564,0.012997005134820938
1760107083369619700,0.18161962890625,0.06291352212429047,-0.041288092732429504,0.0283583365380764
1760107083379685600,0.191685546875,0.0788155198097229,-0.02093302085995674,0.05261467397212982
1760107083389751600,0.20175146484375,0.0847882628440857,0.0015417588874697685,0.08313047885894775
1760107083399817700,0.211817626953125,0.07979030907154083,0.006711486726999283,0.10885182023048401
1760107083409882600,0.221882568359375,0.06769975274801254,-0.016797663643956184,0.13049907982349396
1760107083419948500,0.231948486328125,0.03432421386241913,-0.038346897810697556,0.11649112403392792
1760107083430014700,0.2420146484375,-0.015177160501480103,-0.03299473971128464,0.07976052165031433
1760107083440080600,0.25208056640625,-0.04776466637849808,-0.012493993155658245,0.011527941562235355
1760107083450146600,0.262146484375,-0.05371543765068054,0.018760764971375465,-0.05901622027158737
1760107083460212700,0.272212646484375,-0.048499636352062225,0.0648566260933876,-0.11133774369955063
1760107083470278700,0.282278564453125,-0.04049302265048027,0.06703635305166245,-0.14198759198188782
1760107083480344800,0.2923447265625,-0.03317119553685188,0.05317113548517227,-0.15300002694129944
1760107083490410500,0.302410400390625,-0.028522823005914688,0.03706410527229309,-0.15122860670089722
1760107083500475600,0.3124755859375,-0.023744314908981323,0.028790729120373726,-0.1423778533935547
1760107083510541600,0.32254150390625,-0.017087217420339584,0.028482764959335327,-0.13435958325862885
1760107083520607700,0.332607666015625,-0.016207309439778328,0.04666230082511902,-0.1178828626871109
1760107083530673700,0.342673583984375,-0.01574285514652729,0.07111358642578125,-0.1087639331817627
1760107083540739800,0.35273974609375,-0.006129642017185688,0.08858738839626312,-0.09755149483680725
1760107083550805500,0.362805419921875,0.005666594952344894,0.09781670570373535,-0.0904117077589035
1760107083560871700,0.37287158203125,0.013633174821734428,0.0818430632352829,-0.08308374881744385
1760107083570937600,0.3829375,0.012639875523746014,0.06543336063623428,-0.08461395651102066
1760107083581003800,0.393003662109375,0.006801694631576538,0.07479304075241089,-0.09098583459854126
1760107083591068700,0.403068603515625,0.0032651005312800407,0.08277340233325958,-0.1123734787106514
1760107083601134800,0.413134765625,0.010144844651222229,0.06106065213680267,-0.14105813205242157
1760107083611200500,0.423200439453125,0.02159317396581173,0.0391785204410553,-0.14897464215755463
1760107083621266700,0.4332666015625,0.04685112461447716,0.02518094889819622,-0.13295067846775055
1760107083631332600,0.44333251953125,0.07197598367929459,0.017362602055072784,-0.08549869060516357
1760107083641398800,0.453398681640625,0.0871187150478363,0.01140857208520174,-0.022308001294732094
1760107083651464700,0.463464599609375,0.08895017206668854,0.005188493989408016,0.04103235527873039
1760107083661530600,0.473530517578125,0.07484660297632217,-0.014596929773688316,0.08385331928730011
1760107083671595500,0.483595458984375,0.06091117858886719,-0.03953623026609421,0.09776341170072556
1760107083681661700,0.49366162109375,0.046927716583013535,-0.06788238137960434,0.09634820371866226
1760107083691727600,0.5037275390625,0.04332262650132179,-0.09296603500843048,0.08304663002490997
1760107083701793800,0.513793701171875,0.0376327820122242,-0.09812803566455841,0.08246073871850967
1760107083711859700,0.523859619140625,0.030962126329541206,-0.09422435611486435,0.10244715958833694
1760107083721925600,0.533925537109375,0.036911092698574066,-0.09314284473657608,0.14207658171653748
1760107083731991800,0.54399169921875,0.04332414269447327,-0.07905255258083344,0.20210517942905426
1760107083742057500,0.554057373046875,0.04904114827513695,-0.05462629720568657,0.2664481997489929
1760107083752123600,0.56412353515625,0.0438869446516037,-0.053215257823467255,0.31970131397247314
1760107083762189600,0.574189453125,0.03666524589061737,-0.09235147386789322,0.34837767481803894
1760107083772254700,0.584254638671875,0.02309105545282364,-0.12204615771770477,0.3289613425731659
1760107083782320600,0.594320556640625,0.012763051316142082,-0.14711982011795044,0.2659408152103424
1760107083792386800,0.60438671875,0.005210264585912228,-0.1311001032590866,0.18366274237632751
1760107083802452500,0.614452392578125,0.013454079627990723,-0.06749290227890015,0.11019864678382874
1760107083812518700,0.6245185546875,0.03419604152441025,0.026025870814919472,0.05203120410442352
1760107083822584600,0.63458447265625,0.029365334659814835,0.06888066232204437,-0.015542513690888882
1760107083832650800,0.644650634765625,0.023880036547780037,0.09236647933721542,-0.06760551780462265
1760107083842716700,0.654716552734375,0.033441849052906036,0.12835216522216797,-0.08798083662986755
1760107083852781800,0.66478173828125,0.04831729084253311,0.13383112847805023,-0.09466786682605743
1760107083862847500,0.674847412109375,0.059541188180446625,0.09183067828416824,-0.0842655599117279
1760107083872913700,0.68491357421875,0.06282889097929001,0.05464775487780571,-0.06610024720430374
1760107083882979600,0.6949794921875,0.06953233480453491,0.032533396035432816,-0.04524051025509834
1760107083893045800,0.705045654296875,0.081562340259552,0.033197563141584396,-0.015633536502718925
1760107083903111700,0.715111572265625,0.10312941670417786,0.04250158369541168,0.022760190069675446
1760107083913177900,0.725177734375,0.11440365016460419,0.05676813796162605,0.05499029904603958
1760107083923243800,0.735243896484375,0.11496371030807495,0.07544834166765213,0.07910682260990143
1760107083933309400,0.745309326171875,0.11037170886993408,0.0852472186088562,0.08588526397943497
1760107083943374600,0.75537451171875,0.1079823225736618,0.0800122395157814,0.07852934300899506
1760107083953440800,0.765440673828125,0.10932943969964981,0.07304224371910095,0.05362735688686371
1760107083963506700,0.775506591796875,0.11787685751914978,0.05995573848485947,0.027060994878411293
1760107083973572600,0.785572509765625,0.12288734316825867,0.02917441725730896,0.008483471348881721
1760107083983638800,0.795638671875,0.12720006704330444,-0.011963964439928532,-0.010646280832588673
1760107083993704400,0.805704345703125,0.12391822040081024,-0.04476102069020271,-0.020535213872790337
1760107084003770600,0.8157705078125,0.11456786096096039,-0.04986443370580673,-0.02115572988986969
1760107084013836500,0.82583642578125,0.10285234451293945,-0.029977910220623016,-0.004620126914232969
1760107084023902700,0.83590283203125,0.09817876666784286,0.005845867097377777,0.007306307088583708
1760107084033967600,0.845967529296875,0.0991915613412857,0.04033353924751282,0.01703403703868389
1760107084044033800,0.85603369140625,0.09446631371974945,0.06460931152105331,0.012933832593262196
1760107084054099500,0.866099365234375,0.0878085121512413,0.06935306638479233,0.0015646606916561723
1760107084064165600,0.87616552734375,0.0770549327135086,0.06343073397874832,-0.011941560544073582
1760107084074231600,0.8862314453125,0.06909705698490143,0.05562480539083481,-0.01870698854327202
1760107084084297700,0.896297607421875,0.059508077800273895,0.030163656920194626,-0.01481131836771965
1760107084094363600,0.90636376953125,0.05070602893829346,0.00902298092842102,-0.011264339089393616
1760107084104429800,0.916429931640625,0.047864168882369995,0.006409887224435806,0.01323168259114027
1760107084114495700,0.926495849609375,0.04505588859319687,0.030425777658820152,0.03836861997842789
1760107084124560400,0.936560302734375,0.03800570219755173,0.06536111980676651,0.05365116894245148
1760107084134626300,0.946626220703125,0.02299804985523224,0.09398999810218811,0.04551685228943825
1760107084144692500,0.9566923828125,0.011886009946465492,0.10484983772039413,0.028525086119771004
1760107084154758400,0.96675830078125,0.0026243748143315315,0.11037134379148483,0.0008887505391612649
1760107084164824600,0.976824462890625,-0.0016481345519423485,0.0947955772280693,-0.01756162941455841
1760107084174890500,0.986890380859375,0.003683156333863735,0.06243174895644188,-0.021015647798776627
1760107084184956700,0.996956787109375,0.006671489216387272,0.03594234958291054,-0.006229245103895664
1760107084195022300,1.007022216796875,0.0012585986405611038,0.018352502956986427,-0.0018551970133557916
1760107084205087500,1.01708740234375,-0.004695696756243706,0.008628768846392632,-0.006440095137804747
1760107084215153400,1.0271533203125,-0.014742320403456688,0.0017577409744262695,-0.0021423432044684887
1760107084225219600,1.037219482421875,-0.040853019803762436,0.0028222063556313515,-0.02201192080974579
1760107084235285500,1.047285400390625,-0.049572356045246124,0.024471381679177284,-0.05972781777381897
1760107084245351700,1.0573515625,-0.03221973404288292,0.030865365639328957,-0.09958095848560333
1760107084255417300,1.067417236328125,0.013563400134444237,0.01849791221320629,-0.12697556614875793
1760107084265483300,1.077483154296875,0.0652628168463707,0.006304629147052765,-0.1371680200099945
1760107084275549400,1.087549560546875,0.09775912016630173,-0.004261530004441738,-0.1382647603750229
1760107084285615400,1.097615478515625,0.10210699588060379,-0.018478281795978546,-0.13325189054012299
1760107084295680500,1.107680419921875,0.08821801096200943,-0.027736255899071693,-0.12363573908805847
1760107084305746400,1.117746337890625,0.07065792381763458,-0.020027469843626022,-0.1044069156050682
1760107084315812400,1.127812255859375,0.05185236781835556,-0.00248020701110363,-0.08409401029348373
1760107084325878300,1.137878173828125,0.035390835255384445,0.002224000170826912,-0.07074784487485886
1760107084335944400,1.1479443359375,0.036374881863594055,0.013043458573520184,-0.06905970722436905
1760107084346010400,1.15801025390625,0.04674229770898819,0.03207387402653694,-0.07462651282548904
1760107084356076500,1.16807666015625,0.060611553490161896,0.039763979613780975,-0.07926855236291885
1760107084366142500,1.178142578125,0.057899922132492065,0.039819903671741486,-0.08789905905723572
1760107084376208600,1.188208740234375,0.046356864273548126,0.026777813211083412,-0.10049030929803848
1760107084386273300,1.198273193359375,0.03415026515722275,0.0031811390072107315,-0.10032359510660172
1760107084396339500,1.20833935546875,0.03193739801645279,-0.002798524685204029,-0.08278698474168777
1760107084406405400,1.2184052734375,0.03424795717000961,0.0021895756945014,-0.058807622641325
1760107084416471600,1.228471435546875,0.039631761610507965,0.01365345437079668,-0.04568235203623772
1760107084426537500,1.238537353515625,0.05967444181442261,0.02595726028084755,-0.03605688735842705
1760107084436603600,1.248603759765625,0.0776892602443695,0.05847648158669472,-0.02570459619164467
1760107084446669300,1.25866943359375,0.09173530340194702,0.09521239250898361,-0.019077586010098457
1760107084456735500,1.268735595703125,0.09066303819417953,0.1242133229970932,-0.012965070083737373
1760107084466801400,1.278801513671875,0.08561155200004578,0.1355661153793335,-0.018923625349998474
1760107084476866600,1.288866455078125,0.08410794287919998,0.12432767450809479,-0.018428314477205276
1760107084486932500,1.298932373046875,0.08650505542755127,0.08186224102973938,-0.025151731446385384
1760107084496998700,1.30899853515625,0.08154873549938202,0.023249292746186256,-0.03198417276144028
1760107084507064300,1.319064208984375,0.07900328189134598,-0.020987145602703094,-0.03170347213745117
1760107084517130500,1.329130615234375,0.0830744057893753,-0.037894293665885925,-0.020243708044290543
1760107084527196400,1.339196533203125,0.08240329474210739,-0.037597618997097015,-0.002170963678508997
1760107084537262300,1.349262451171875,0.08568333834409714,-0.005486689042299986,0.021001063287258148
1760107084547328500,1.35932861328125,0.08491288870573044,0.04737785831093788,0.04022109508514404
1760107084557394400,1.36939453125,0.08437830209732056,0.07255508005619049,0.048745740205049515
1760107084567459300,1.379459228515625,0.0866694226861,0.06218685954809189,0.045911602675914764
1760107084577525500,1.389525390625,0.07558996230363846,0.029950398951768875,0.028431015089154243
1760107084587591400,1.39959130859375,0.06639539450407028,0.008449899964034557,0.009591281414031982
1760107084597657300,1.4096572265625,0.059992410242557526,-0.0041164192371070385,-0.011360257863998413
1760107084607723500,1.4197236328125,0.06292401254177094,-0.011162877082824707,-0.024804426357150078
1760107084617789400,1.42978955078125,0.07213223725557327,-0.015473904088139534,-0.03516921028494835
1760107084627855600,1.439855712890625,0.07869799435138702,-0.007218636572360992,-0.02633843570947647
1760107084637921500,1.449921630859375,0.07399149984121323,-0.0016031283885240555,-0.01744365133345127
1760107084647986400,1.459986328125,0.06264190375804901,-0.009643477387726307,-0.011317848227918148
1760107084658052400,1.47005224609375,0.05140293389558792,-0.015096966177225113,-0.007203135639429092
1760107084668118500,1.480118408203125,0.04288241267204285,0.005442130379378796,0.0017291069962084293
1760107084678184400,1.490184326171875,0.035916998982429504,0.013183074072003365,-0.005357629153877497
1760107084688250600,1.500250732421875,0.025205234065651894,-0.00039212219417095184,-0.026513779535889626
1760107084698316300,1.51031640625,0.021706463769078255,-0.010333137586712837,-0.05446748435497284
1760107084708382500,1.520382568359375,0.02926051989197731,-0.008360800333321095,-0.07315222173929214
1760107084718448400,1.530448486328125,0.03783145546913147,-0.006171215325593948,-0.07384710758924484
1760107084728514600,1.5405146484375,0.0334918349981308,-0.010821627452969551,-0.06666376441717148
1760107084738579500,1.550579345703125,0.026255030184984207,-0.020307274535298347,-0.05923939123749733
1760107084748645600,1.560645751953125,0.005078903399407864,-0.038882024586200714,-0.055775150656700134
1760107084758711300,1.570711181640625,-0.013866093941032887,-0.03904581069946289,-0.06161121279001236
1760107084768777500,1.580777587890625,-0.03152844309806824,-0.021495843306183815,-0.06920069456100464
1760107084778843400,1.590843505859375,-0.04251791909337044,0.00969553180038929,-0.07491020113229752
1760107084788909300,1.600909423828125,-0.04007553309202194,0.044852450489997864,-0.07074501365423203
1760107084798975500,1.6109755859375,-0.03371144458651543,0.06221040338277817,-0.061188798397779465
1760107084809041400,1.62104150390625,-0.028328662738204002,0.02870331145823002,-0.056675005704164505
1760107084819107600,1.631107666015625,-0.026298727840185165,-0.013931667432188988,-0.05805588513612747
1760107084829172500,1.64117236328125,-0.03190414980053902,-0.03393546864390373,-0.06282906979322433
1760107084839238400,1.65123828125,-0.052321821451187134,-0.03675134479999542,-0.07990126311779022
1760107084849304300,1.66130419921875,-0.06951838731765747,-0.04540795087814331,-0.10783862322568893
1760107084859370500,1.67137060546875,-0.07950257509946823,-0.04373690485954285,-0.12697602808475494
1760107084869436400,1.6814365234375,-0.07781839370727539,-0.027236489579081535,-0.12334106862545013
1760107084879502600,1.691502685546875,-0.06921208649873734,-0.00679116602987051,-0.10589887946844101
1760107084889568500,1.701568603515625,-0.06211422383785248,0.00455150380730629,-0.08111124485731125
1760107084899634400,1.711634521484375,-0.06239631399512291,-0.001756099984049797,-0.062425222247838974
1760107084909700400,1.721700439453125,-0.05871289595961571,0.0017283791676163673,-0.04759807512164116
1760107084919765500,1.731765625,-0.06837692856788635,0.008420710451900959,-0.047365762293338776
1760107084929831400,1.74183154296875,-0.08484618365764618,0.0011518783867359161,-0.06793548911809921
1760107084939897600,1.751897705078125,-0.09775591641664505,0.0009662536904215813,-0.09203922748565674
1760107084949963500,1.761963623046875,-0.10731612890958786,0.011571226641535759,-0.11152930557727814
1760107084960029400,1.772029541015625,-0.11468857526779175,0.018573544919490814,-0.12153340876102448
1760107084970095400,1.782095458984375,-0.11968334019184113,0.031578026711940765,-0.11858395487070084
1760107084980161500,1.79216162109375,-0.12684284150600433,0.022673312574625015,-0.11818183213472366
1760107084990227500,1.8022275390625,-0.12661993503570557,0.014394876547157764,-0.12876445055007935
1760107085000292600,1.812292724609375,-0.10790140181779861,0.013165428303182125,-0.13277052342891693
1760107085010358500,1.822358642578125,-0.07906895875930786,0.016393445432186127,-0.11593987047672272
1760107085020424400,1.832424560546875,-0.052215687930583954,0.01152592059224844,-0.08062029629945755
1760107085030490400,1.842490478515625,-0.03950921446084976,0.0029987450689077377,-0.03195049613714218
1760107085040556500,1.852556640625,-0.03597254306077957,-0.002374546602368355,0.02507607452571392
1760107085050622500,1.86262255859375,-0.04770776256918907,-0.012800556607544422,0.06354011595249176
1760107085060688400,1.8726884765625,-0.052423425018787384,-0.030214432626962662,0.07339967042207718
1760107085070754600,1.882754638671875,-0.05932766944169998,-0.033240318298339844,0.0564395934343338
1760107085080820500,1.892820556640625,-0.05293219909071922,-0.019945617765188217,0.025678958743810654
1760107085090885400,1.902885498046875,-0.04299727827310562,0.0034715579822659492,0.004602702334523201
1760107085100951600,1.91295166015625,-0.0322476364672184,0.011651181615889072,0.0014601460425183177
1760107085111017500,1.923017578125,-0.029650788754224777,0.011826417408883572,0.020497221499681473
1760107085121083400,1.93308349609375,-0.03767721354961395,-0.007395376451313496,0.05373077839612961
1760107085131149600,1.943149658203125,-0.05841604620218277,-0.01889171078801155,0.0780411809682846
1760107085141215500,1.953215576171875,-0.06971361488103867,-0.009676074609160423,0.0948387011885643
1760107085151281400,1.963281494140625,-0.07655581086874008,0.02162858285009861,0.09415320307016373
1760107085161347300,1.973347412109375,-0.07435569167137146,0.04622254520654678,0.0718235969543457
1760107085171413500,1.98341357421875,-0.0655376985669136,0.05991997942328453,0.04617416113615036
1760107085181478400,1.993478515625,-0.046287212520837784,0.04697294905781746,0.026307478547096252
1760107085191544600,2.003544677734375,-0.024462608620524406,0.010095627047121525,0.007986528798937798
1760107085201610500,2.013610595703125,-0.004170315805822611,-0.022858750075101852,-0.0017966519808396697
1760107085211676400,2.023676513671875,0.012535160407423973,-0.028063897043466568,0.005761665292084217
1760107085221742300,2.033742431640625,0.015444908291101456,-0.0273902490735054,0.015959173440933228
1760107085231808500,2.04380859375,0.01378842256963253,-0.004565095528960228,0.033998358994722366
1760107085241874400,2.05387451171875,0.014916734769940376,0.0017032856121659279,0.053273893892765045
1760107085251940600,2.063940673828125,0.011618675664067268,0.013365267775952816,0.087480328977108
1760107085262005500,2.074005615234375,0.011968158185482025,0.05271516740322113,0.11139975488185883
1760107085272071400,2.084071533203125,0.021661000326275826,0.05933552235364914,0.11638519167900085
1760107085282137300,2.094137451171875,0.03467985615134239,0.03506124019622803,0.09124284982681274
1760107085292203500,2.10420361328125,0.04893948510289192,-0.007040936965495348,0.04603276401758194
1760107085302269400,2.11426953125,0.06096349284052849,-0.060347169637680054,-0.013165715150535107
1760107085312335600,2.124335693359375,0.06486475467681885,-0.09423642605543137,-0.05929326266050339
1760107085322401500,2.134401611328125,0.06300539523363113,-0.07655465602874756,-0.06768783926963806
1760107085332467500,2.144467529296875,0.05074499547481537,-0.030497411265969276,-0.037140049040317535
1760107085342533400,2.154533447265625,0.03723680600523949,0.013110562227666378,0.03145942836999893
1760107085352598500,2.1645986328125,0.025239799171686172,0.04565625637769699,0.09666532278060913
1760107085362664400,2.17466455078125,0.015239784494042397,0.0498725101351738,0.12531208992004395
1760107085372730400,2.18473046875,0.003261151723563671,0.009549056179821491,0.10005413740873337
1760107085382796500,2.194796630859375,0.0011833072640001774,-0.0428316630423069,0.0334622822701931
1760107085392862500,2.204862548828125,-0.003229284193366766,-0.07422207295894623,-0.034384939819574356
1760107085402928400,2.214928466796875,-0.013023188337683678,-0.07329253107309341,-0.08899550139904022
1760107085412994300,2.224994384765625,-0.03702758997678757,-0.03825198858976364,-0.11587292701005936
1760107085423060500,2.235060546875,-0.06046539917588234,0.014255695044994354,-0.11194182187318802
1760107085433126400,2.24512646484375,-0.06964718550443649,0.05127949267625809,-0.07066389173269272
1760107085443191600,2.255191650390625,-0.06023649126291275,0.06946561485528946,-0.017707284539937973
1760107085453257500,2.265257568359375,-0.04097944125533104,0.05882495641708374,0.025968823581933975
1760107085463323400,2.275323486328125,-0.028174877166748047,0.027521561831235886,0.0319259837269783
1760107085473389300,2.285389404296875,-0.02277771569788456,-0.01788906380534172,-0.0032365312799811363
1760107085483455500,2.29545556640625,-0.01634356379508972,-0.060018204152584076,-0.047953713685274124
1760107085493521400,2.305521484375,-0.012369062751531601,-0.07382375746965408,-0.07306785881519318
1760107085503587600,2.315587646484375,-0.015966901555657387,-0.05704714357852936,-0.0703030675649643
1760107085513653500,2.325653564453125,-0.031606581062078476,-0.010047413408756256,-0.04802465811371803
1760107085523718400,2.335718505859375,-0.027698460966348648,0.0437266044318676,-0.010614708997309208
1760107085533784300,2.345784423828125,-0.017870863899588585,0.07429809123277664,0.01435082871466875
1760107085543850500,2.3558505859375,0.001587271224707365,0.07583306729793549,0.018078913912177086
1760107085553916400,2.36591650390625,0.013171222060918808,0.055378396064043045,0.006446226965636015
1760107085563982600,2.375982666015625,0.006814599968492985,0.02732076495885849,-0.00910319946706295
1760107085574048500,2.386048583984375,-0.0014872720930725336,-0.0023548398166894913,-0.025738636031746864
1760107085584114400,2.396114501953125,-0.01707104779779911,-0.024660177528858185,-0.025736128911376
1760107085594180400,2.406180419921875,-0.03146196901798248,-0.04082370176911354,-0.02729860693216324
1760107085604246300,2.416246337890625,-0.045743178576231,-0.043154068291187286,-0.021046800538897514
1760107085614311400,2.4263115234375,-0.05187990143895149,-0.03428840637207031,-0.03101767599582672
1760107085624377600,2.436377685546875,-0.047249965369701385,-0.014732679352164268,-0.045348286628723145
1760107085634443500,2.446443603515625,-0.03607933595776558,0.009583045728504658,-0.05535831302404404
1760107085644509400,2.456509521484375,-0.027904946357011795,0.017136236652731895,-0.06167992204427719
1760107085654575400,2.466575439453125,-0.019591623917222023,0.0021722018718719482,-0.06303014606237411
1760107085664641300,2.476641357421875,-0.01654544100165367,-0.027718951925635338,-0.04767351597547531
1760107085674707500,2.48670751953125,-0.009898722171783447,-0.051416024565696716,-0.017849838361144066
1760107085684773400,2.4967734375,-0.008434927091002464,-0.06004955992102623,0.00786885991692543
1760107085694839600,2.506839599609375,-0.009933221153914928,-0.030894070863723755,0.022099725902080536
1760107085704904400,2.516904541015625,-0.009430073201656342,0.00994187593460083,0.013419657945632935
1760107085714970400,2.526970458984375,-0.008463612757623196,0.035357750952243805,-0.012812744826078415
1760107085725036300,2.537036376953125,-0.0024713794700801373,0.01960105448961258,-0.040775116533041
1760107085735102500,2.5471025390625,0.0034544202499091625,-0.018472827970981598,-0.059944018721580505
1760107085745168400,2.55716845703125,0.02250443771481514,-0.04590361565351486,-0.05031225457787514
1760107085755234600,2.567234619140625,0.026336461305618286,-0.06058935075998306,-0.019479509443044662
1760107085765300500,2.577300537109375,0.02284814603626728,-0.05922737717628479,0.00903646182268858
1760107085775366700,2.58736669921875,0.013271419331431389,-0.03309377655386925,0.01936047151684761
1760107085785431300,2.597431396484375,0.0030533261597156525,0.004239914007484913,0.01236011553555727
1760107085795497500,2.60749755859375,0.0017864606343209743,0.02845071256160736,-0.020533651113510132
1760107085805563400,2.6175634765625,0.0028905835933983326,0.02222287468612194,-0.06044686958193779
1760107085815629600,2.627629638671875,0.013668662868440151,-0.004491293802857399,-0.07606524229049683
1760107085825695500,2.637695556640625,0.03577607870101929,-0.018161680549383163,-0.07450223714113235
1760107085835761700,2.64776171875,0.04781409725546837,-0.031641535460948944,-0.056977301836013794
1760107085845827300,2.657827392578125,0.05065029859542847,-0.037695251405239105,-0.030038567259907722
1760107085855893200,2.667893310546875,0.048465974628925323,-0.030051713809370995,-0.01720212958753109
1760107085865959400,2.67795947265625,0.046149447560310364,-0.013861975632607937,-0.026267163455486298
1760107085876024600,2.688024658203125,0.047238677740097046,0.0003981860354542732,-0.029206227511167526
1760107085886090500,2.698090576171875,0.05733673274517059,-0.0013908129185438156,-0.028115414083003998
1760107085896156700,2.70815673828125,0.054893553256988525,-0.007440182846039534,-0.016474470496177673
1760107085906222300,2.718222412109375,0.04787212610244751,-0.012508178129792213,0.007650838699191809
1760107085916288300,2.728288330078125,0.03477390110492706,-0.029493819922208786,0.02884613908827305
1760107085926354400,2.7383544921875,0.019811168313026428,-0.032632485032081604,0.037253085523843765
1760107085936420400,2.74842041015625,0.006022118963301182,-0.025889623910188675,0.01273362711071968
1760107085946486500,2.758486572265625,-0.0026029772125184536,-0.004032862838357687,-0.015604601241648197
1760107085956552400,2.768552490234375,-0.008909609168767929,0.010898414999246597,-0.04602455720305443
1760107085966617300,2.778617431640625,-0.016202250495553017,0.02092684432864189,-0.06647905707359314
1760107085976683300,2.788683349609375,-0.022399159148335457,0.021661344915628433,-0.07103652507066727
1760107085986749400,2.79874951171875,-0.02176290564239025,0.016605105251073837,-0.04884025454521179
1760107085996815400,2.8088154296875,-0.024733129888772964,0.019551092758774757,-0.019504470750689507
1760107086006881500,2.818881591796875,-0.028793279081583023,0.02117079310119152,0.017937803640961647
1760107086016947500,2.828947509765625,-0.03004363365471363,0.014798380434513092,0.04070303589105606
1760107086027013600,2.839013671875,-0.03457362577319145,0.009715703316032887,0.047385554760694504
1760107086037079300,2.849079345703125,-0.03960220515727997,0.0029819002375006676,0.03141564503312111
1760107086047144400,2.85914453125,-0.04565185680985451,-0.004941207822412252,-0.0013747191987931728
1760107086057210400,2.86921044921875,-0.051726263016462326,-0.007494912948459387,-0.04296077787876129
1760107086067276500,2.879276611328125,-0.05560935288667679,0.003163594752550125,-0.07716165482997894
1760107086077342500,2.889342529296875,-0.05592014640569687,0.013111832551658154,-0.09359495341777802
1760107086087408600,2.89940869140625,-0.0489782989025116,0.00853765569627285,-0.09059534966945648
1760107086097474300,2.909474365234375,-0.03984259068965912,-0.0032883770763874054,-0.07204696536064148
1760107086107540500,2.91954052734375,-0.027385273948311806,-0.021902207285165787,-0.03774832561612129
1760107086117606400,2.9296064453125,-0.032013848423957825,-0.043796055018901825,-0.03685243800282478
1760107086127671000,2.939671142578125,-0.020152470096945763,-0.05098722502589226,-0.04434681311249733
1760107086137737000,2.949737060546875,-0.007709648460149765,-0.04701485484838486,-0.054785870015621185
1760107086147803100,2.95980322265625,-0.011211705394089222,-0.04073565453290939,-0.0655578225851059
1760107086157869000,2.969869140625,-0.027434350922703743,-0.042128220200538635,-0.07264156639575958
1760107086167935200,2.979935302734375,-0.040422532707452774,-0.034670501947402954,-0.06532444804906845
1760107086178001000,2.9900009765625,-0.037543922662734985,-0.03399938344955444,-0.04836197569966316
1760107086188067000,3.000067138671875,-0.025270015001296997,-0.03469553589820862,-0.01919078454375267
1760107086198133000,3.010133056640625,-0.01571752317249775,-0.03222998231649399,0.0029707089997828007
1760107086208199000,3.020198974609375,-0.01104639284312725,-0.014762114733457565,0.02422824501991272
1760107086218264000,3.03026416015625,-0.012943629175424576,-0.008482913486659527,0.03176205977797508
1760107086228330200,3.040330322265625,-0.021554114297032356,-0.000561099499464035,0.026131724938750267
1760107086238396000,3.05039599609375,-0.025950461626052856,0.0018669050186872482,0.017712406814098358
1760107086248462000,3.060462158203125,-0.03258271515369415,-0.01008223369717598,0.020555799826979637
1760107086258528000,3.070528076171875,-0.029709694907069206,-0.02030530944466591,0.02875141240656376
1760107086268594000,3.080593994140625,-0.024334995076060295,-0.01865791156888008,0.04084732383489609
1760107086278660000,3.09066015625,-0.0153401680290699,-0.006469156127423048,0.05193086713552475
1760107086288726000,3.10072607421875,-0.011241023428738117,0.0004189442843198776,0.06021486222743988
1760107086298792200,3.110792236328125,-0.011459669098258018,0.0005952455103397369,0.051995012909173965
1760107086308857000,3.120857177734375,-0.016181599348783493,-0.007976511493325233,0.046817049384117126
1760107086318923000,3.130923095703125,-0.018548617139458656,-0.018858985975384712,0.04172002524137497
1760107086328989000,3.140989013671875,-0.025587070733308792,-0.027729779481887817,0.031707264482975006
1760107086339055000,3.15105517578125,-0.03160608187317848,-0.033250514417886734,0.03039459139108658
1760107086349121000,3.16112109375,-0.03035210259258747,-0.024329684674739838,0.03147680684924126
1760107086359187200,3.171187255859375,-0.024922184646129608,-0.0069861141964793205,0.0333854965865612
1760107086369252900,3.1812529296875,-0.028586793690919876,0.012942190282046795,0.0303347185254097
1760107086379319000,3.191319091796875,-0.02651219069957733,0.014815990813076496,0.023624084889888763
1760107086389384000,3.201384033203125,-0.024435387924313545,0.00461448822170496,0.014840453863143921
1760107086399450000,3.2114501953125,-0.01844514161348343,-0.009505858644843102,0.02379373461008072
1760107086409516000,3.22151611328125,-0.00677585368975997,-0.016243327409029007,0.03313669562339783
1760107086419582200,3.231582275390625,0.000451698899269104,-0.025985969230532646,0.04784134030342102
1760107086429648000,3.24164794921875,0.009695104323327541,-0.036604829132556915,0.05162205174565315
1760107086439714000,3.251714111328125,0.01586511731147766,-0.03951086848974228,0.055182963609695435
1760107086449780000,3.261780029296875,0.01379084400832653,-0.03841855376958847,0.047542162239551544
1760107086459846100,3.27184619140625,-0.005210277158766985,-0.039168499410152435,0.024684254080057144
1760107086469911000,3.2819111328125,-0.021303460001945496,-0.022011110559105873,0.00045380182564258575
1760107086479977200,3.291977294921875,-0.02627371810376644,-0.002655256539583206,-0.020495688542723656
1760107086490043000,3.30204296875,-0.012345078401267529,0.020384695380926132,-0.034902170300483704
1760107086500109000,3.312109130859375,0.011814320459961891,0.039843615144491196,-0.027914034202694893
1760107086510175000,3.322175048828125,0.03426697105169296,0.03679686412215233,-0.0006742589175701141
1760107086520241000,3.332240966796875,0.044874873012304306,0.012733341194689274,0.026509691029787064
1760107086530307000,3.34230712890625,0.037279389798641205,-0.009642812423408031,0.051201317459344864
1760107086540373000,3.352373046875,0.02359846420586109,-0.016074080020189285,0.05020103603601456
1760107086550439200,3.362439208984375,0.01156160794198513,-0.004492927808314562,0.028122760355472565
1760107086560504000,3.372504150390625,0.009081406518816948,0.01253053080290556,-0.009869364090263844
1760107086570570000,3.382570068359375,0.011998769827187061,0.021635083481669426,-0.03329451382160187
1760107086580636000,3.392635986328125,0.009588075801730156,0.021513110026717186,-0.03951219469308853
1760107086590702000,3.4027021484375,0.0003265584819018841,0.015047607012093067,-0.02324177511036396
1760107086600768000,3.41276806640625,-0.004749159794300795,0.0067646438255906105,0.0029104668647050858
1760107086610834200,3.422834228515625,-0.00117930443957448,0.001009228639304638,0.025568587705492973
1760107086620900000,3.432900146484375,0.010772163048386574,0.0015490511432290077,0.04071265086531639
1760107086630966000,3.442966064453125,0.018001951277256012,0.015593096613883972,0.04248381406068802
1760107086641032000,3.453031982421875,0.016334544867277145,0.029931021854281425,0.02533545531332493
1760107086651097000,3.46309716796875,0.008920954540371895,0.034489892423152924,0.00884575117379427
1760107086661163000,3.4731630859375,-0.003470467869192362,0.03121926449239254,-0.0075175086967647076
1760107086671229200,3.483229248046875,-0.01558081153780222,0.029970310628414154,-0.0229246374219656
1760107086681294800,3.493294921875,-0.019134800881147385,0.032084062695503235,-0.028506090864539146
1760107086691361000,3.503361083984375,-0.017542686313390732,0.03811302408576012,-0.028852328658103943
1760107086701427000,3.513427001953125,-0.007339850068092346,0.03542083501815796,-0.02000557631254196
1760107086711493000,3.5234931640625,-0.001240207115188241,0.02880537509918213,-0.01219883095473051
1760107086721559000,3.53355908203125,0.004988127388060093,0.024985868483781815,0.0006860754219815135
1760107086731624200,3.543624267578125,0.01442006230354309,0.027172788977622986,0.016835687682032585
1760107086741689900,3.55368994140625,0.01809282787144184,0.02323184534907341,0.02570134960114956
1760107086751756000,3.563756103515625,0.01674332097172737,0.011066856794059277,0.033244285732507706
1760107086761822000,3.573822021484375,0.013970969244837761,0.0017031831666827202,0.03321738913655281
1760107086771888000,3.58388818359375,0.01375707145780325,0.0076467618346214294,0.03709916025400162
1760107086781954000,3.5939541015625,0.008115964941680431,0.022588958963751793,0.04085821285843849
1760107086792020000,3.60402001953125,-0.0007103004027158022,0.0353572815656662,0.03393593430519104
1760107086802086100,3.614086181640625,-0.009618574753403664,0.040025804191827774,0.018077872693538666
1760107086812151000,3.624151123046875,-0.003945727366954088,0.039606425911188126,0.007308098487555981
1760107086822217000,3.634217041015625,-0.002953433431684971,0.034067317843437195,0.0036047068424522877
1760107086832283100,3.644283203125,0.008965428918600082,0.021549062803387642,0.01098347082734108
1760107086842349000,3.65434912109375,0.01548404898494482,0.00031780917197465897,0.02224224992096424
1760107086852415000,3.6644150390625,0.019916057586669922,-0.011830409988760948,0.0304498840123415
1760107086862481200,3.674481201171875,0.026198454201221466,-0.0022182632237672806,0.026695894077420235
1760107086872547000,3.684547119140625,0.027236441150307655,0.002392674796283245,0.009286221116781235
1760107086882613000,3.694613037109375,0.017862381413578987,0.0072843702509999275,-0.010825172066688538
1760107086892679000,3.704678955078125,0.0070119923911988735,0.012874512933194637,-0.026912475004792213
1760107086902744000,3.714744140625,0.0037916977889835835,0.010595644824206829,-0.03148325905203819
1760107086912810000,3.72481005859375,0.005397098604589701,0.009872930124402046,-0.013830448500812054
1760107086922876200,3.734876220703125,0.010196913033723831,0.0028027696534991264,0.008114797994494438
1760107086932942000,3.744942138671875,0.01342686451971531,-0.008316458202898502,0.032726410776376724
1760107086943008000,3.755008056640625,0.007440078072249889,-0.015486486256122589,0.03533710539340973
1760107086953074000,3.765073974609375,-0.0030539948493242264,-0.0015666140243411064,0.02182028815150261
1760107086963140000,3.77514013671875,-0.00849403440952301,0.023277482017874718,-0.004683490842580795
1760107086973206000,3.7852060546875,-0.01651039347052574,0.03491845354437828,-0.029082151129841805
1760107086983272200,3.795272216796875,-0.006293176207691431,0.039208538830280304,-0.03189578279852867
1760107086993337000,3.805337158203125,-0.0011295732110738754,0.022172562777996063,-0.02790609933435917
1760107087003403000,3.815403076171875,0.004998893477022648,-0.0019016135483980179,-0.011905294843018055
1760107087013469000,3.825468994140625,0.004089828580617905,-0.024607978761196136,-0.0070356871001422405
1760107087023535000,3.83553515625,0.0007291855290532112,-0.026532646268606186,-0.005486526060849428
1760107087033601000,3.84560107421875,-0.0012860896531492472,-0.008716538548469543,-0.018325405195355415
1760107087043667200,3.855667236328125,-0.0024680006317794323,0.0117594413459301,-0.022213352844119072
1760107087053733000,3.865733154296875,-0.0007369252853095531,0.02181476168334484,-0.02037481777369976
1760107087063799000,3.875799072265625,0.0017515323124825954,0.01784239336848259,-0.013649004511535168
1760107087073864000,3.885864013671875,0.00951259396970272,0.017424646764993668,0.002725414000451565
1760107087083930000,3.89593017578125,0.014671136625111103,0.011968630366027355,0.022445056587457657
1760107087093996000,3.90599609375,0.0074994126334786415,0.011189259588718414,0.029940394684672356
1760107087104062200,3.916062255859375,-0.0061729904264211655,0.004987290129065514,0.029757969081401825
1760107087114128100,3.926128173828125,-0.008021330460906029,0.0020352136343717575,0.020907660946249962
1760107087124194300,3.9361943359375,0.004538137465715408,-0.005789419636130333,0.004358244128525257
1760107087134260500,3.946260498046875,0.019816365092992783,-0.011360661126673222,-0.007568236440420151
1760107087144326400,3.956326416015625,0.02743566781282425,-0.02727198228240013,-0.007472362369298935
1760107087154391600,3.9663916015625,0.02651803195476532,-0.02098715677857399,0.00285953632555902
1760107087164457200,3.976457275390625,0.02080608531832695,-0.0030944431200623512,0.0156544279307127
1760107087174523400,3.9865234375,0.0029495316557586193,0.0159213375300169,0.020399941131472588
1760107087184589300,3.99658935546875,-0.012693077325820923,0.03951507806777954,0.01999860256910324
1760107087194655500,4.006655517578125,-0.018332025036215782,0.03885767608880997,0.015991730615496635
1760107087204721400,4.016721435546875,-0.01521612610667944,0.0192062109708786,0.017603475600481033
1760107087214787600,4.02678759765625,-0.008496263064444065,-0.0031827501952648163,0.01573297195136547
1760107087224853500,4.036853515625,0.002609118353575468,-0.017543846741318703,0.013192316517233849
1760107087234919400,4.04691943359375,0.011691570281982422,-0.016993539407849312,0.009257991798222065
1760107087244984300,4.056984375,0.01848689280450344,-0.00339783588424325,0.0008133746450766921
1760107087255050500,4.067050537109375,0.019756779074668884,0.01763850636780262,-0.005594558082520962
1760107087265116400,4.077116455078125,0.018732793629169464,0.028784366324543953,-0.0010895548621192575
1760107087275182600,4.0871826171875,0.014050725847482681,0.018630221486091614,0.008105889894068241
1760107087285248500,4.09724853515625,-0.002587906550616026,0.0014818590134382248,0.009516832418739796
1760107087295314400,4.107314453125,-0.019519345834851265,0.020056888461112976,-0.0023757608141750097
1760107087305380400,4.11738037109375,-0.02188716270029545,0.045260779559612274,-0.019838374108076096
1760107087315446300,4.1274462890625,-0.003315532114356756,0.037573400884866714,-0.03786880150437355
1760107087325511400,4.137511474609375,0.013963056728243828,0.02539130672812462,-0.02860819175839424
1760107087335577600,4.14757763671875,0.025193195790052414,0.0299483984708786,0.0009169623954221606
1760107087345643500,4.1576435546875,0.03472864255309105,0.016235779970884323,0.03914957121014595
1760107087355709400,4.16770947265625,0.041811950504779816,-0.011965634301304817,0.06603377312421799
1760107087365775400,4.177775390625,0.03977543115615845,-0.017019249498844147,0.07700306922197342
1760107087375841300,4.18784130859375,0.030501019209623337,-0.02087046578526497,0.061700932681560516
1760107087385907500,4.197907470703125,0.01481660082936287,-0.029157426208257675,0.025570889934897423
1760107087395973400,4.207973388671875,-0.003114245366305113,-0.026859629899263382,-0.007984258234500885
1760107087406039600,4.21803955078125,-0.006206708028912544,-0.01339788269251585,-0.026284702122211456
1760107087416104200,4.228104248046875,-0.002451526466757059,0.006669383496046066,-0.021412093192338943
1760107087426170400,4.23817041015625,0.0067438362166285515,0.020007824525237083,-0.014605319127440453
1760107087436236300,4.248236328125,0.01635529100894928,0.02105068229138851,-0.004812250379472971
1760107087446302500,4.258302490234375,0.026206856593489647,0.011341065168380737,-0.0022233915515244007
1760107087456368400,4.268368408203125,0.03330850601196289,-0.00850491039454937,-0.006760574411600828
1760107087466434600,4.2784345703125,0.0366225391626358,-0.02744957245886326,-0.01169194933027029
1760107087476500500,4.28850048828125,0.03664325177669525,-0.03491484746336937,-0.011638464406132698
1760107087486566400,4.29856640625,0.03256302326917648,-0.036219798028469086,-0.01005468238145113
1760107087496631300,4.30863134765625,0.035748597234487534,-0.0302421972155571,-0.001538022537715733
1760107087506697500,4.318697509765625,0.03772865608334541,-0.025449305772781372,-0.006637443322688341
1760107087516763400,4.328763427734375,0.0395410917699337,-0.0159248448908329,-0.01466852892190218
1760107087526829600,4.33882958984375,0.032884255051612854,-0.012271519750356674,-0.026759546250104904
1760107087536895500,4.3488955078125,0.030773095786571503,-0.010937807150185108,-0.03944312408566475
1760107087546961400,4.35896142578125,0.031100664287805557,-0.022397655993700027,-0.038332320749759674
1760107087557027300,4.36902734375,0.033990971744060516,-0.02754904329776764,-0.034284207969903946
1760107087567093200,4.37909326171875,0.028612982481718063,-0.020530281588435173,-0.02769474685192108
1760107087577159400,4.389159423828125,0.026128459721803665,-0.007028753403574228,-0.014604821801185608
1760107087587224600,4.399224609375,0.02412017062306404,-0.0027245525270700455,0.0014359294436872005
1760107087597290500,4.40929052734375,0.02686002291738987,0.004230992868542671,0.012964524328708649
1760107087607356400,4.4193564453125,0.027567626908421516,0.009607382118701935,0.02254311367869377
1760107087617422300,4.42942236328125,0.028240254148840904,0.0037903059273958206,0.01854204572737217
1760107087627488300,4.43948828125,0.024772021919488907,0.0005047637969255447,0.009262261912226677
1760107087637554400,4.449554443359375,0.017189590260386467,0.0072019752115011215,-0.006767019163817167
1760107087647620400,4.459620361328125,0.014390075579285622,0.019449319690465927,-0.015455582179129124
1760107087657686500,4.4696865234375,0.016297731548547745,0.02222614735364914,-0.010496428236365318
1760107087667751400,4.47975146484375,0.02674078568816185,0.01874619349837303,0.0007266647880896926
1760107087677817300,4.4898173828125,0.033846862614154816,0.009317589923739433,0.016282906755805016
1760107087687883300,4.49988330078125,0.04830330237746239,0.006073592230677605,0.03579109162092209
1760107087697949400,4.509949462890625,0.05349148064851761,-0.001560254953801632,0.04855000600218773
1760107087708015400,4.520015380859375,0.062268465757369995,-0.013023565523326397,0.04294245317578316
1760107087718081500,4.53008154296875,0.07835317403078079,-0.019244950264692307,0.031169570982456207
1760107087728147500,4.5401474609375,0.1019490510225296,-0.04277397692203522,0.0018566908547654748
1760107087738213400,4.55021337890625,0.11390320211648941,-0.07599867135286331,-0.024610338732600212
1760107087748278300,4.5602783203125,0.11631043255329132,-0.08997120708227158,-0.042737413197755814
1760107087758344400,4.570344482421875,0.09951065480709076,-0.0752960592508316,-0.03562779724597931
1760107087768410400,4.580410400390625,0.07909965515136719,-0.05314362421631813,-0.02190612442791462
1760107087778476500,4.5904765625,0.061439063400030136,-0.039544153958559036,0.0077073341235518456
1760107087788542500,4.60054248046875,0.04924551397562027,-0.05268286168575287,0.0317133329808712
1760107087798608400,4.6106083984375,0.041484978049993515,-0.07436145842075348,0.047198615968227386
1760107087808674300,4.62067431640625,0.04534096643328667,-0.0923074334859848,0.04749688878655434
1760107087818740500,4.630740478515625,0.0488896369934082,-0.10292456299066544,0.04784732311964035
1760107087828806400,4.640806396484375,0.05439518764615059,-0.09306607395410538,0.04562198743224144
1760107087838871600,4.65087158203125,0.045461930334568024,-0.06371043622493744,0.044043272733688354
1760107087848937500,4.6609375,0.022005606442689896,-0.023157421499490738,0.027033396065235138
1760107087859003400,4.67100341796875,-0.014948380179703236,0.019181307405233383,0.005100862123072147
1760107087869069300,4.6810693359375,-0.05413786321878433,0.045664578676223755,-0.01531413197517395
1760107087879135500,4.691135498046875,-0.079679474234581,0.06419472396373749,-0.02368456870317459
1760107087889201400,4.701201416015625,-0.09458331763744354,0.0610431432723999,-0.02265871874988079
1760107087899267300,4.711267333984375,-0.09403395652770996,0.04935774952173233,-0.009548893198370934
1760107087909333500,4.72133349609375,-0.0878538265824318,0.05380336195230484,0.006356569938361645
1760107087919398400,4.7313984375,-0.08059680461883545,0.06773246824741364,0.004972360096871853
1760107087929464300,4.74146435546875,-0.08317261189222336,0.07708016037940979,-0.016047172248363495
1760107087939530500,4.751530517578125,-0.08954975754022598,0.08800958096981049,-0.05584270879626274
1760107087949596400,4.761596435546875,-0.09383798390626907,0.10427137464284897,-0.0916566327214241
1760107087959662300,4.771662353515625,-0.09300567209720612,0.10583384335041046,-0.10766620934009552
1760107087969728500,4.781728515625,-0.08489421755075455,0.10795904695987701,-0.09966767579317093
1760107087979794400,4.79179443359375,-0.06902468949556351,0.09722761809825897,-0.06963265687227249
1760107087989860400,4.8018603515625,-0.04231664165854454,0.06596262753009796,-0.03611863777041435
1760107087999925200,4.81192529296875,-0.012377401813864708,0.036379240453243256,-0.001874307170510292
1760107088009991400,4.821991455078125,0.014952756464481354,0.012384692206978798,0.022710664197802544
1760107088020057300,4.832057373046875,0.034523434937000275,-0.007056150585412979,0.031750865280628204
1760107088030123500,4.84212353515625,0.04213661700487137,-0.01259765587747097,0.029577726498246193
1760107088040189400,4.852189453125,0.03568166866898537,-0.0011598793789744377,0.023821193724870682
1760107088050255400,4.86225537109375,0.026749426499009132,0.024587564170360565,0.021572420373558998
1760107088060321300,4.8723212890625,0.016013165935873985,0.029218629002571106,0.0021046772599220276
1760107088070387500,4.882387451171875,0.003574339672923088,0.018552672117948532,-0.020908761769533157
1760107088080453400,4.892453369140625,-0.0055441721342504025,0.0013938602060079575,-0.04819902777671814
1760107088090518500,4.9025185546875,-0.01083667203783989,-0.016483407467603683,-0.0550052709877491
1760107088100584400,4.91258447265625,-0.018944019451737404,-0.028910718858242035,-0.0421445406973362
1760107088110650400,4.922650390625,-0.025192327797412872,-0.033733170479536057,-0.009514428675174713
1760107088120716300,4.93271630859375,-0.023709990084171295,-0.02484218031167984,0.030744999647140503
1760107088130782500,4.942782470703125,-0.02668900415301323,-0.007916726171970367,0.057048242539167404
1760107088140848400,4.952848388671875,-0.03194093704223633,0.016950475051999092,0.061467695981264114
1760107088150914300,4.962914306640625,-0.0382734015583992,0.04156847298145294,0.05435146018862724
1760107088160980500,4.97298046875,-0.04472197964787483,0.0620066300034523,0.035530634224414825
1760107088171045400,4.98304541015625,-0.05110211670398712,0.07234102487564087,0.014294058084487915
1760107088181111300,4.993111328125,-0.04407395422458649,0.07219359278678894,0.0065828473307192326
1760107088191177500,5.003177490234375,-0.03619978576898575,0.056882549077272415,0.010707284323871136
1760107088201243400,5.013243408203125,-0.027417946606874466,0.030032828450202942,0.013167520985007286
1760107088211309300,5.023309326171875,-0.026467198505997658,-0.0017538629472255707,0.007224143948405981
1760107088221375500,5.03337548828125,-0.0257578007876873,-0.014645430259406567,-0.01002995204180479
1760107088231441400,5.04344140625,-0.01762956753373146,-0.005787756759673357,-0.02902201935648918
1760107088241507600,5.053507568359375,-0.002822909504175186,0.011172513477504253,-0.0339294970035553
1760107088251572500,5.063572509765625,0.00997144915163517,0.017356108874082565,-0.029264438897371292
1760107088261638400,5.073638427734375,0.019420329481363297,0.027284178882837296,-0.015634307637810707
1760107088271704300,5.083704345703125,0.028578409925103188,0.028840262442827225,0.005388685502111912
1760107088281770500,5.0937705078125,0.027331363409757614,0.02793910726904869,0.020712835714221
1760107088291836400,5.10383642578125,0.02253926917910576,0.022887088358402252,0.0281185545027256
1760107088301902300,5.11390234375,0.01266755722463131,0.027639973908662796,0.023738689720630646
1760107088311968300,5.12396826171875,0.0056770252995193005,0.02857287973165512,0.009917681105434895
1760107088322034400,5.134034423828125,0.004502192139625549,0.017115460708737373,-0.007663834374397993
1760107088332100400,5.144100341796875,0.014201425015926361,0.005356006324291229,-0.013683909550309181
1760107088342165500,5.15416552734375,0.02874922752380371,-0.007036720402538776,-0.008211757056415081
1760107088352231400,5.1642314453125,0.03126804530620575,-0.009780309163033962,0.010732106864452362
1760107088362297300,5.17429736328125,0.02352193370461464,-0.005169100593775511,0.02992546372115612
1760107088372363300,5.18436328125,0.012483663856983185,0.010537424124777317,0.042165081948041916
1760107088382429400,5.194429443359375,-0.0022900879848748446,0.021846359595656395,0.034811243414878845
1760107088392495400,5.204495361328125,-0.004196644760668278,0.03349769115447998,0.01441276166588068
1760107088402561500,5.2145615234375,-0.0015151291154325008,0.025035466998815536,-0.00750654237344861
1760107088412627500,5.22462744140625,0.00007318006828427315,0.007919865660369396,-0.019246555864810944
1760107088422692400,5.2346923828125,0.004176647402346134,-0.0013609807938337326,-0.016540775075554848
1760107088432758300,5.24475830078125,0.006810247898101807,-0.0068771857768297195,-0.005260690115392208
1760107088442824400,5.254824462890625,0.005982818081974983,-0.01256417017430067,0.004817171022295952
1760107088452890400,5.264890380859375,0.012474007904529572,-0.010386769659817219,0.005940758623182774
1760107088462956500,5.27495654296875,0.015483547002077103,-0.0017681112512946129,0.005172307603061199
1760107088473022500,5.2850224609375,0.018885202705860138,-0.004523417912423611,-0.003552207723259926
1760107088483088400,5.29508837890625,0.019157763570547104,-0.003308860119432211,-0.015614977106451988
1760107088493154600,5.305154541015625,0.011493186466395855,-0.0004211943596601486,-0.01809624396264553
1760107088503219500,5.315219482421875,0.004815798252820969,0.0061125485226511955,-0.012426953762769699
1760107088513285400,5.325285400390625,0.0016929758712649345,0.01407699752599001,0.003987971693277359
1760107088523351600,5.3353515625,0.011308342218399048,0.010867386125028133,0.01834443025290966
1760107088533417500,5.34541748046875,0.02437274530529976,0.002345005050301552,0.03031240962445736
1760107088543483400,5.3554833984375,0.0371883325278759,-0.010231876745820045,0.033606234937906265
1760107088553549600,5.365549560546875,0.04248109832406044,-0.012336572632193565,0.029172338545322418
1760107088563615200,5.375615234375,0.04251967370510101,-0.01178472489118576,0.02278546243906021
1760107088573681400,5.385681396484375,0.03370807319879532,-0.014037759974598885,0.012998346239328384
1760107088583746600,5.39574658203125,0.024401912465691566,-0.013798902742564678,0.006032011471688747
1760107088593812500,5.4058125,0.01797650381922722,-0.012647084891796112,0.00797718483954668
1760107088603878400,5.41587841796875,0.02254939079284668,-0.007122303359210491,0.021530762314796448
1760107088613944600,5.425944580078125,0.026022152975201607,-0.00362557265907526,0.034977059811353683
1760107088624010200,5.43601025390625,0.022284384816884995,-0.02052326127886772,0.03591853007674217
1760107088634076400,5.446076416015625,0.01467307098209858,-0.026439473032951355,0.019211456179618835
1760107088644142300,5.456142333984375,0.016689235344529152,-0.020583776757121086,-0.0065038176253438
1760107088654208500,5.46620849609375,0.012299014255404472,-0.02252522110939026,-0.0363067202270031
1760107088664274400,5.4762744140625,0.00983873289078474,-0.013016211800277233,-0.05422881245613098
1760107088674339300,5.48633935546875,0.010711983777582645,-0.008668068796396255,-0.05095764994621277
1760107088684405200,5.4964052734375,0.01635236106812954,-0.014002108946442604,-0.018281986936926842
1760107088694471400,5.506471435546875,0.020011810585856438,-0.019795015454292297,0.023753881454467773
1760107088704537300,5.516537353515625,0.02422044798731804,-0.013189611956477165,0.07341529428958893
1760107088714603500,5.526603515625,0.019615579396486282,0.007560406811535358,0.10396042466163635
1760107088724669400,5.53666943359375,0.009456630796194077,0.029390808194875717,0.10152062028646469
1760107088734735600,5.546735595703125,-0.0022447663359344006,0.041038673371076584,0.07059706002473831
1760107088744801500,5.556801513671875,-0.007223447319120169,0.04513208195567131,0.021281301975250244
1760107088754866400,5.566866455078125,-0.0034348343033343554,0.03074994683265686,-0.023595359176397324
1760107088764932400,5.576932373046875,0.012389698065817356,0.009361160919070244,-0.046606019139289856
1760107088774998500,5.58699853515625,0.024319060146808624,-0.012770771980285645,-0.03446013852953911
1760107088785064400,5.597064453125,0.03607935458421707,-0.025467514991760254,0.0011251748073846102
1760107088795130400,5.60713037109375,0.04119794815778732,-0.02032468467950821,0.034542255103588104
1760107088805196500,5.617196533203125,0.03616036847233772,-0.007217517122626305,0.05289464071393013
1760107088815262200,5.62726220703125,0.02717379294335842,-0.000009405426681041718,0.04902986064553261
1760107088825328400,5.637328369140625,0.017768455669283867,0.000031451694667339325,0.027171147987246513
1760107088835393500,5.6473935546875,0.01682622916996479,0.006300265900790691,0.006580385845154524
1760107088845459500,5.65745947265625,0.015788432210683823,0.015822263434529305,-0.003622564021497965
1760107088855525400,5.667525390625,0.024703362956643105,0.015781251713633537,-0.005673198029398918
1760107088865591600,5.677591552734375,0.026359273120760918,0.008789957500994205,-0.010859554633498192
1760107088875657200,5.6876572265625,0.021718980744481087,-0.001137242652475834,-0.022069333121180534
1760107088885723400,5.697723388671875,0.015565473586320877,-0.003497967030853033,-0.028182048350572586
1760107088895789300,5.707789306640625,0.009222356602549553,-0.006977386772632599,-0.02562141977250576
1760107088905855500,5.71785546875,0.007342131342738867,-0.0048817964270710945,-0.02002444677054882
1760107088915920400,5.72792041015625,0.013299623504281044,-0.000571204349398613,-0.005750436335802078
1760107088925986600,5.737986572265625,0.023084230720996857,0.002479391172528267,0.011930235661566257
1760107088936052200,5.74805224609375,0.03368094936013222,-0.0007299846038222313,0.022937612608075142
1760107088946118400,5.758118408203125,0.041162557899951935,0.002459852024912834,0.03472746163606644
1760107088956184300,5.768184326171875,0.04161636531352997,0.011393425054848194,0.03114205040037632
1760107088966250500,5.77825048828125,0.029112672433257103,0.027149371802806854,0.018657434731721878
1760107088976316400,5.78831640625,0.01977749541401863,0.043711572885513306,0.01126689650118351
1760107088986382600,5.798382568359375,0.013423171825706959,0.0448649637401104,0.003912155516445637
1760107088996447200,5.808447265625,0.011798377148807049,0.027509942650794983,0.005624035373330116
1760107089006513400,5.818513427734375,0.013132004998624325,0.004503757692873478,0.010096079669892788
1760107089016579300,5.828579345703125,0.01195888128131628,-0.01365926768630743,0.016011493280529976
1760107089026645500,5.8386455078125,0.007346684113144875,-0.015306790359318256,0.010587753728032112
1760107089036711400,5.84871142578125,-0.0005197606515139341,-0.0027241529896855354,0.008302494883537292
1760107089046777600,5.858777587890625,-0.00095911487005651,0.025774065405130386,-0.00568308774381876
1760107089056843500,5.868843505859375,0.0058860075660049915,0.043270766735076904,-0.01575756072998047
1760107089066909400,5.878909423828125,0.016783252358436584,0.030592959374189377,-0.02173313871026039
1760107089076974300,5.888974365234375,0.02500922419130802,0.008259689435362816,-0.028505291789770126
1760107089087040500,5.89904052734375,0.02733996883034706,-0.017200738191604614,-0.024836070835590363
1760107089097106400,5.9091064453125,0.02439025044441223,-0.03609213978052139,-0.011938116513192654
1760107089107172600,5.919172607421875,0.014819171279668808,-0.04440804943442345,-0.00755686778575182
1760107089117238500,5.929238525390625,0.008013996295630932,-0.047346848994493484,-0.004996238276362419
1760107089127304700,5.9393046875,0.007700837217271328,-0.042581263929605484,-0.008693917654454708
1760107089137371000,5.949370849609375,0.0073863184079527855,-0.02810511738061905,-0.013494531624019146
1760107089147436800,5.959436767578125,0.012453002855181694,-0.011407872661948204,-0.018916571512818336
1760107089157501700,5.969501708984375,0.02688494138419628,0.00453301053494215,-0.012601152062416077
1760107089167567600,5.979567626953125,0.03051791712641716,0.01131132896989584,0.006955413613468409
1760107089177633800,5.9896337890625,0.028613224625587463,0.013094316236674786,0.028463369235396385
1760107089187699700,5.99969970703125,0.025019513443112373,0.0093421321362257,0.047190938144922256
1760107089197766000,6.009765869140625,0.018825532868504524,0.009607914835214615,0.04599251598119736
1760107089207831800,6.019831787109375,0.012217649258673191,0.005757540464401245,0.029856834560632706
1760107089217898000,6.02989794921875,0.010779542848467827,-0.005533995572477579,0.011663184501230717
1760107089227963600,6.039963623046875,0.006506281904876232,-0.008132199756801128,-0.006620362866669893
1760107089238029800,6.05002978515625,0.0009314869530498981,-0.010994832031428814,-0.016976330429315567
1760107089248094700,6.0600947265625,-0.007467083632946014,-0.0016012825071811676,-0.018980588763952255
1760107089258161000,6.070160888671875,-0.011870620772242546,0.010349652729928493,-0.012528281658887863
1760107089268226800,6.080226806640625,-0.016030743718147278,0.014245324768126011,-0.010729316622018814
1760107089278293000,6.09029296875,-0.018841978162527084,0.018335942178964615,-0.014794898219406605
1760107089288358700,6.100358642578125,-0.02303226850926876,0.03565935790538788,-0.0262911319732666
1760107089298424800,6.1104248046875,-0.01605585217475891,0.03994091600179672,-0.04342857375741005
1760107089308490800,6.12049072265625,-0.007081647403538227,0.032604195177555084,-0.059948552399873734
1760107089318556700,6.130556640625,0.0024500726722180843,0.008359577506780624,-0.07658691704273224
1760107089328621800,6.140621826171875,0.0073404074646532536,-0.017165346071124077,-0.08088671416044235
1760107089338688000,6.15068798828125,0.012135960161685944,-0.03904055058956146,-0.07797001302242279
1760107089348753700,6.160753662109375,0.016242455691099167,-0.039916861802339554,-0.061410076916217804
1760107089358819800,6.17081982421875,0.01656629703938961,-0.026985086500644684,-0.045289698988199234
1760107089368885800,6.1808857421875,0.020479202270507812,-0.009449869394302368,-0.03314778581261635
1760107089378951700,6.19095166015625,0.025909122079610825,0.0010600294917821884,-0.030286753550171852
1760107089389017900,6.201017822265625,0.03371741995215416,-0.00011552218347787857,-0.038783203810453415
1760107089399083800,6.211083740234375,0.03925066813826561,0.0004453388974070549,-0.040349140763282776
1760107089409148700,6.221148681640625,0.04056708887219429,0.00590111780911684,-0.02230234071612358
1760107089419214800,6.23121484375,0.035175520926713943,0.00908625964075327,-0.004804838914424181
1760107089429280800,6.24128076171875,0.02552749030292034,0.003451813943684101,0.014523060992360115
1760107089439346700,6.2513466796875,0.016223737969994545,-0.012694398872554302,0.01840648241341114
1760107089449412900,6.261412841796875,0.008568262681365013,-0.020865632221102715,0.003323678392916918
1760107089459478800,6.271478759765625,0.008835112676024437,-0.02631951868534088,-0.025181733071804047
1760107089469545000,6.281544921875,0.01248468179255724,-0.017229203134775162,-0.05172717571258545
1760107089479610600,6.291610595703125,0.017186757177114487,-0.006254049949347973,-0.061988066881895065
1760107089489675800,6.30167578125,0.017302248626947403,0.0027988022193312645,-0.06485646218061447
1760107089499741700,6.31174169921875,0.017240729182958603,0.01221494097262621,-0.053008317947387695
1760107089509807900,6.321807861328125,0.017880531027913094,0.014592132531106472,-0.03441886976361275
1760107089519873800,6.331873779296875,0.014280470088124275,0.005222865380346775,-0.013228096067905426
1760107089529940000,6.34193994140625,0.012487923726439476,-0.0031506908126175404,-0.0037611285224556923
1760107089540005600,6.352005615234375,0.007800760678946972,-0.008143318817019463,-0.012591904029250145
1760107089550071800,6.36207177734375,0.00753924623131752,-0.009271867573261261,-0.020506057888269424
1760107089560137700,6.3721376953125,0.004285396076738834,-0.006697123870253563,-0.03298376500606537
1760107089570203000,6.382202880859375,0.005915188230574131,-0.00018853135406970978,-0.0465339720249176
1760107089580268800,6.392268798828125,0.013165910728275776,-0.00020477641373872757,-0.04628843069076538
1760107089590335000,6.4023349609375,0.026489565148949623,-0.0014261221513152122,-0.03651678189635277
1760107089600400600,6.412400634765625,0.027950042858719826,-0.0006993459537625313,-0.018679725006222725
1760107089610466800,6.422466796875,0.02770623192191124,-0.004719731397926807,-0.013979456387460232
1760107089620532700,6.43253271484375,0.013909192755818367,-0.005060615949332714,-0.00753141101449728
1760107089630598700,6.4425986328125,0.0036613624542951584,-0.010514308698475361,-0.011674297973513603
1760107089640664800,6.452664794921875,-0.008279186673462391,0.0029852548614144325,-0.01713404431939125
1760107089650730000,6.46272998046875,-0.020561769604682922,0.011860836297273636,-0.026201244443655014
1760107089660795600,6.472795654296875,-0.02704923041164875,0.01572561450302601,-0.03387008234858513
1760107089670861800,6.48286181640625,-0.03363160416483879,0.005300444550812244,-0.03555488958954811
1760107089680927700,6.492927734375,-0.0335671566426754,-0.009588489308953285,-0.03508617356419563
1760107089690993700,6.50299365234375,-0.030836882069706917,-0.025611665099859238,-0.032803311944007874
1760107089701059800,6.513059814453125,-0.025034653022885323,-0.03355347737669945,-0.021871035918593407
1760107089711125800,6.523125732421875,-0.02999006025493145,-0.022441349923610687,-0.016399085521697998
1760107089721192000,6.53319189453125,-0.04178227484226227,-0.007246417459100485,-0.01103255059570074
1760107089731256800,6.5432568359375,-0.04738251864910126,0.012738194316625595,-0.00571249146014452
1760107089741322800,6.55332275390625,-0.046341754496097565,0.012149902060627937,-0.015077497810125351
1760107089751388700,6.563388671875,-0.028755951672792435,-0.0037571438588202,-0.015559391118586063
1760107089761454800,6.573454833984375,-0.016234833747148514,-0.02136356756091118,-0.013668281026184559
1760107089771520800,6.583520751953125,-0.006280028726905584,-0.03854764625430107,-0.012315825559198856
1760107089781587000,6.5935869140625,-0.00924971979111433,-0.0434260219335556,0.0006913186516612768
1760107089791652600,6.603652587890625,-0.024485306814312935,-0.022083686664700508,0.012929507531225681
1760107089801718800,6.61371875,-0.040620069950819016,0.007523473352193832,0.008921450935304165
1760107089811783700,6.62378369140625,-0.05000732094049454,0.03373055160045624,0.0016829578671604395
1760107089821849900,6.633849853515625,-0.036805231124162674,0.04076609015464783,-0.002947746543213725
1760107089831915800,6.643915771484375,-0.015582535415887833,0.02395041659474373,0.01474514976143837
1760107089841982000,6.65398193359375,0.006449530366808176,-0.009851489216089249,0.03777190297842026
1760107089852047600,6.664047607421875,0.014052568934857845,-0.03364366292953491,0.058557722717523575
1760107089862113800,6.67411376953125,0.020084626972675323,-0.05238379165530205,0.05122870206832886
1760107089872179700,6.6841796875,0.013714970089495182,-0.05223755165934563,0.025084882974624634
1760107089882246000,6.694245849609375,0.005648255348205566,-0.04719991609454155,-0.011302419938147068
1760107089892311800,6.704311767578125,-0.006135705858469009,-0.019669054076075554,-0.051185883581638336
1760107089902377000,6.714376953125,-0.005974318366497755,0.0014929557219147682,-0.06228460744023323
1760107089912442600,6.724442626953125,0.0030054044909775257,0.012731333263218403,-0.03989117592573166
1760107089922508800,6.7345087890625,0.018252002075314522,0.014413385652005672,-0.00376886036247015
1760107089932574700,6.74457470703125,0.03404603898525238,0.0012763142585754395,0.04274342209100723
1760107089942641000,6.754640869140625,0.04187653213739395,-0.02115948498249054,0.07348482310771942
1760107089952706800,6.764706787109375,0.040471307933330536,-0.028728999197483063,0.08709808439016342
1760107089962772700,6.774772705078125,0.03495243936777115,-0.0282999649643898,0.07728193700313568
1760107089972839000,6.7848388671875,0.028657538816332817,-0.010556193999946117,0.05639282986521721
1760107089982903800,6.79490380859375,0.032076504081487656,0.01154005341231823,0.022864695638418198
1760107089992969700,6.8049697265625,0.03277213126420975,0.02194378897547722,-0.0009336137445643544
1760107090003036000,6.815035888671875,0.03599029406905174,0.027990229427814484,-0.008272753097116947
1760107090013101800,6.825101806640625,0.03146803006529808,0.022062281146645546,0.003461254760622978
1760107090023167700,6.835167724609375,0.024407990276813507,0.01270846277475357,0.034006115049123764
1760107090033234000,6.84523388671875,0.014028158970177174,-0.0009562550112605095,0.05804496631026268
1760107090043299600,6.855299560546875,0.00789889320731163,-0.007187519688159227,0.059269752353429794
1760107090053365800,6.86536572265625,0.012011373415589333,-0.008087551221251488,0.050848156213760376
1760107090063431000,6.875430908203125,0.018034111708402634,-0.002166278660297394,0.0321679450571537
1760107090073496800,6.885496826171875,0.01838633045554161,0.00970541127026081,0.011684490367770195
1760107090083562800,6.895562744140625,0.021199427545070648,0.021572723984718323,-0.009328915737569332
1760107090093629000,6.90562890625,0.013168293982744217,0.02688710018992424,-0.02400941774249077
1760107090103694600,6.915694580078125,0.004512753337621689,0.027167532593011856,-0.02924519218504429
1760107090113760800,6.9257607421875,-0.0026716210413724184,0.030052486807107925,-0.01234735269099474
1760107090123826000,6.935825927734375,-0.000754144974052906,0.03261471167206764,0.0106639564037323
1760107090133892000,6.94589208984375,0.004981225356459618,0.028009913861751556,0.027688555419445038
1760107090143957200,6.955957275390625,0.01757105439901352,0.017457403242588043,0.03774518519639969
1760107090154023000,6.96602294921875,0.037763673812150955,0.01054943073540926,0.03765037655830383
1760107090164089000,6.976089111328125,0.05218122899532318,0.007110224105417728,0.026211299002170563
1760107090174155000,6.986155029296875,0.06124962866306305,0.003937873989343643,0.008323121815919876
1760107090184221000,6.996220947265625,0.05379597097635269,-0.000054737553000450134,-0.015943069010972977
1760107090194287000,7.006287109375,0.04328729957342148,0.0059888120740652084,-0.0385720431804657
1760107090204353000,7.01635302734375,0.03708799183368683,0.02742113173007965,-0.04151776432991028
1760107090214418000,7.02641796875,0.04274352267384529,0.04109518602490425,-0.029345206916332245
1760107090224483800,7.03648388671875,0.04440027475357056,0.02520862966775894,-0.011502827517688274
1760107090234550000,7.046550048828125,0.05181042477488518,0.0032440824434161186,0.002551876939833164
1760107090244616000,7.056615966796875,0.05801638588309288,-0.011879476718604565,0.010040951892733574
1760107090254682000,7.06668212890625,0.05360376834869385,-0.02242225781083107,-0.003677909029647708
1760107090264748000,7.076748046875,0.036621056497097015,-0.016567297279834747,-0.028563551604747772
1760107090274814200,7.086814208984375,0.009935216046869755,0.011623191647231579,-0.05787283927202225
1760107090284880000,7.0968798828125,-0.007661621086299419,0.04344157502055168,-0.07612375169992447
1760107090294946000,7.106946044921875,-0.010016066953539848,0.06884118169546127,-0.07754777371883392
1760107090305011000,7.117010986328125,-0.000813779653981328,0.06967981159687042,-0.06344393640756607
1760107090315077000,7.1270771484375,0.01385656651109457,0.0635325238108635,-0.03761785104870796
1760107090325143000,7.13714306640625,0.020398356020450592,0.051857225596904755,-0.0030982212629169226
1760107090335209200,7.147209228515625,0.017777979373931885,0.02952498570084572,0.01651446335017681
1760107090345275000,7.15727490234375,0.0036275405436754227,0.006796770729124546,0.011909857392311096
1760107090355341000,7.167341064453125,-0.007715277373790741,-0.017768610268831253,-0.03193401172757149
1760107090365407000,7.177406982421875,-0.004007624462246895,-0.02467365562915802,-0.06631594896316528
1760107090375473000,7.187472900390625,0.013804446905851364,0.0030405186116695404,-0.07227012515068054
1760107090385538000,7.1975380859375,0.038723912090063095,0.04280897229909897,-0.03943575173616409
1760107090395604200,7.207604248046875,0.04722137749195099,0.07864993810653687,0.0114801786839962
1760107090405670000,7.217669921875,0.05254104360938072,0.10621259361505508,0.052236128598451614
1760107090415736000,7.227736083984375,0.06262065470218658,0.11442466080188751,0.0741506889462471
1760107090425802000,7.237802001953125,0.06870704144239426,0.08715575188398361,0.07100070267915726
1760107090435868000,7.247867919921875,0.07619086652994156,0.05178072676062584,0.035814493894577026
1760107090445934000,7.25793408203125,0.07215138524770737,0.028282858431339264,-0.014023371040821075
1760107090456000000,7.268,0.07054203003644943,0.026051560416817665,-0.05188949033617973
1760107090466065000,7.27806494140625,0.06560000032186508,0.045307546854019165,-0.06642501801252365
1760107090476131000,7.288131103515625,0.06844966113567352,0.07356458902359009,-0.0446648932993412
1760107090486197000,7.298197021484375,0.08564196527004242,0.08454426378011703,-0.006676499266177416
1760107090496263000,7.308262939453125,0.10259051620960236,0.06405159831047058,0.030614366754889488
1760107090506329000,7.3183291015625,0.12198125571012497,0.035441793501377106,0.05557724088430405
1760107090516395000,7.32839501953125,0.12887704372406006,0.024806806817650795,0.0466109924018383
1760107090526461200,7.338461181640625,0.12383940815925598,0.03141890466213226,0.014962254092097282
1760107090536526000,7.348526123046875,0.10767988860607147,0.05600051209330559,-0.03292248398065567
1760107090546592000,7.358592041015625,0.09078399091959,0.07896414399147034,-0.08111131936311722
1760107090556658000,7.368657958984375,0.09029686450958252,0.078528493642807,-0.11011535674333572
1760107090566724000,7.37872412109375,0.09861018508672714,0.05777154862880707,-0.10559703409671783
1760107090576790000,7.3887900390625,0.11921759694814682,0.029284074902534485,-0.06270848214626312
1760107090586856200,7.398856201171875,0.13614411652088165,0.011519991792738438,0.004135530441999435
1760107090596921900,7.408921875,0.1575700342655182,0.015460208989679813,0.07201797515153885
1760107090606988000,7.418988037109375,0.17012576758861542,0.026314452290534973,0.11559607833623886
1760107090617054000,7.429053955078125,0.17418257892131805,0.026780173182487488,0.10926061868667603
1760107090627119000,7.439119140625,0.1734006702899933,0.029291000217199326,0.0707092359662056
1760107090637185000,7.44918505859375,0.17031769454479218,0.025056976824998856,0.026200490072369576
1760107090647251200,7.459251220703125,0.16022111475467682,0.027948368340730667,-0.018407192081212997
1760107090657316900,7.46931689453125,0.14287328720092773,0.03253859281539917,-0.04561963677406311
1760107090667383000,7.479383056640625,0.12395180016756058,0.03640390560030937,-0.05373082682490349
1760107090677449000,7.489448974609375,0.11254140734672546,0.028082488104701042,-0.03845011442899704
1760107090687515100,7.49951513671875,0.1030978411436081,0.010937057435512543,-0.011204911395907402
1760107090697581000,7.5095810546875,0.09581560641527176,0.0036371322348713875,0.018721092492341995
1760107090707646200,7.519646240234375,0.08799150586128235,0.014070065692067146,0.04023943468928337
1760107090717712000,7.5297119140625,0.0785481333732605,0.030541345477104187,0.03976062685251236
1760107090727778000,7.539778076171875,0.06885528564453125,0.04294208809733391,0.011486910283565521
1760107090737844000,7.549843994140625,0.07024634629487991,0.055889613926410675,-0.03246200457215309
1760107090747910100,7.55991015625,0.0686870664358139,0.06688234210014343,-0.06421514600515366
1760107090757976000,7.56997607421875,0.06526745110750198,0.05499979481101036,-0.07797708362340927
1760107090768042000,7.5800419921875,0.05604146420955658,0.04054388776421547,-0.0782625749707222
1760107090778108200,7.590108154296875,0.040626127272844315,0.032000426203012466,-0.06118256598711014
1760107090788173000,7.600173095703125,0.03586279973387718,0.022538214921951294,-0.03539011627435684
1760107090798239000,7.610239013671875,0.04360520839691162,0.025819502770900726,-0.005167488008737564
1760107090808305200,7.62030517578125,0.051095880568027496,0.03780132904648781,0.022989049553871155
1760107090818371000,7.63037109375,0.059268198907375336,0.04457392543554306,0.03137258440256119
1760107090828437000,7.64043701171875,0.07108384370803833,0.062406979501247406,0.02441321313381195
1760107090838503200,7.650503173828125,0.07758060842752457,0.08333088457584381,0.013073318637907505
1760107090848569000,7.660569091796875,0.07620961219072342,0.08161447942256927,-0.008720926009118557
1760107090858634000,7.670634033203125,0.06836063414812088,0.06477179378271103,-0.026214485988020897
1760107090868700000,7.680699951171875,0.056402239948511124,0.037552155554294586,-0.03146384283900261
1760107090878766000,7.69076611328125,0.039286598563194275,0.009268522262573242,-0.03166990354657173
1760107090888832000,7.70083203125,0.023623749613761902,-0.01161864958703518,-0.023580016568303108
1760107090898898200,7.710898193359375,0.006684386171400547,-0.02515210211277008,-0.016246404498815536
1760107090908963800,7.7209638671875,-0.0022276160307228565,-0.021192513406276703,-0.012106252834200859
1760107090919030000,7.731030029296875,-0.00630561588332057,0.002659953199326992,-0.018206095322966576
1760107090929096000,7.741095947265625,-0.005213719792664051,0.029963480308651924,-0.02682648040354252
1760107090939161000,7.7511611328125,0.0047481004148721695,0.03916390240192413,-0.03209394961595535
1760107090949227000,7.76122705078125,0.0032229083590209484,0.03322691470384598,-0.04249945282936096
1760107090959293200,7.771293212890625,-0.0009023656602948904,0.015361407771706581,-0.04316958412528038
1760107090969358800,7.78135888671875,-0.0035274436231702566,-0.011551965028047562,-0.03240242600440979
1760107090979425000,7.791425048828125,-0.008187975734472275,-0.0428527370095253,-0.018406560644507408
1760107090989491000,7.801490966796875,-0.012063407339155674,-0.0583837553858757,-0.008337946608662605
1760107090999557000,7.81155712890625,-0.017270993441343307,-0.04862144961953163,0.005519768223166466
1760107091009623000,7.821623046875,-0.02480081468820572,-0.03332798182964325,0.02341008558869362
1760107091019688200,7.831688232421875,-0.028565801680088043,-0.012775672599673271,0.04021652415394783
1760107091029753900,7.84175390625,-0.035736363381147385,-0.006977437995374203,0.04647548496723175
1760107091039820000,7.851820068359375,-0.04118030145764351,-0.030816596001386642,0.03343171253800392
1760107091049886000,7.861885986328125,-0.03624812513589859,-0.04988349974155426,0.016258321702480316
1760107091059952000,7.8719521484375,-0.025076424703001976,-0.04950549826025963,-0.0010035269660875201
1760107091070018000,7.88201806640625,-0.01919376850128174,-0.036193691194057465,-0.006054745055735111
1760107091080084000,7.892083984375,-0.014558873139321804,-0.020449254661798477,-0.0015515040140599012
1760107091090150100,7.902150146484375,-0.02515266090631485,-0.0009586429223418236,0.008156251162290573
1760107091100215000,7.912215087890625,-0.03359012305736542,-0.006428294349461794,0.019343199208378792
1760107091110281000,7.922281005859375,-0.03745783120393753,-0.030248938128352165,0.025022922083735466
1760107091120347100,7.93234716796875,-0.024324480444192886,-0.040777601301670074,0.030728625133633614
1760107091130413300,7.942413330078125,-0.009620102122426033,-0.03852802887558937,0.040664080530405045
1760107091140479200,7.952479248046875,0.005817127414047718,-0.0760735273361206,0.05646635964512825
1760107091150545400,7.96254541015625,0.0019630002789199352,-0.10308117419481277,0.09507739543914795
1760107091160611300,7.972611328125,-0.005313970614224672,-0.06331870704889297,0.1221657544374466
1760107091170677500,7.982677490234375,-0.012754842638969421,-0.05196937918663025,0.11817528307437897
1760107091180742400,7.992742431640625,-0.013336018659174442,-0.047883011400699615,0.07852574437856674
1760107091190808300,8.002808349609374,-0.003239442128688097,-0.01219851803034544,0.024018561467528343
1760107091200874200,8.012874267578125,0.009822305291891098,-0.0034187771379947662,-0.0276569202542305
1760107091210940400,8.0229404296875,0.016014687716960907,-0.022173821926116943,-0.04066938906908035
1760107091221006300,8.03300634765625,0.011907633394002914,-0.029874902218580246,-0.012148940935730934
1760107091231072500,8.043072509765626,0.003506691660732031,-0.022055329754948616,0.03884819522500038
1760107091241138400,8.053138427734375,-0.009919228032231331,-0.02766622230410576,0.0823044553399086
1760107091251204600,8.06320458984375,-0.017598986625671387,-0.050025857985019684,0.10050662606954575
1760107091261269200,8.073269287109374,-0.020821595564484596,-0.05947553366422653,0.09544968605041504
1760107091271335400,8.08333544921875,-0.023358523845672607,-0.06186625361442566,0.07020798325538635
1760107091281401300,8.0934013671875,-0.025019530206918716,-0.05093121528625488,0.03628432750701904
1760107091291467500,8.103467529296875,-0.034643128514289856,-0.014827542006969452,0.01081172563135624
1760107091301533400,8.113533447265626,-0.0427204892039299,0.010686968453228474,-0.017230600118637085
1760107091311599600,8.123599609375,-0.05486716702580452,0.011837719939649105,-0.03891299292445183
1760107091321665500,8.13366552734375,-0.06166817247867584,-0.014501774683594704,-0.05057061091065407
1760107091331730400,8.14373046875,-0.055388443171978,-0.056150417774915695,-0.03886335343122482
1760107091341796400,8.15379638671875,-0.04648270457983017,-0.08637800067663193,-0.013435667380690575
1760107091351862500,8.163862548828124,-0.0382964089512825,-0.08677028864622116,0.025061126798391342
1760107091361928400,8.173928466796875,-0.033322773873806,-0.06593338400125504,0.0541013665497303
1760107091371994400,8.183994384765626,-0.04348219931125641,-0.030320264399051666,0.07002946734428406
1760107091382060500,8.194060546875,-0.06635544449090958,0.003910736180841923,0.06484407931566238
1760107091392126200,8.204126220703126,-0.0931609645485878,0.023637037724256516,0.04054193198680878
1760107091402192400,8.2141923828125,-0.11686226725578308,0.014540326781570911,-0.005013980902731419
1760107091412257500,8.224257568359375,-0.12380646169185638,-0.016337428241968155,-0.046913228929042816
1760107091422323500,8.234323486328124,-0.11614377796649933,-0.04493243619799614,-0.06642099469900131
1760107091432389400,8.244389404296875,-0.09989023953676224,-0.059891413897275925,-0.07746405899524689
1760107091442455600,8.25445556640625,-0.07986672967672348,-0.10940543562173843,-0.0697382315993309
1760107091452521200,8.264521240234375,-0.06821859627962112,-0.16950152814388275,-0.03959205001592636
1760107091462587400,8.27458740234375,-0.07317829132080078,-0.16089732944965363,-0.0017940072575584054
1760107091472653300,8.2846533203125,-0.08110997080802917,-0.10379355400800705,0.027985192835330963
1760107091482719500,8.294719482421876,-0.08662375807762146,-0.07448109239339828,0.02284887246787548
1760107091492784400,8.304784423828124,-0.08487885445356369,-0.025086116045713425,-0.015267887152731419
1760107091502850300,8.314850341796875,-0.06268276274204254,0.011817287653684616,-0.06153753399848938
1760107091512916200,8.324916259765626,-0.03903868421912193,0.0033401809632778168,-0.10324689745903015
1760107091522982400,8.334982421875,-0.015159904956817627,-0.007452173624187708,-0.125142902135849
1760107091533048300,8.34504833984375,-0.004859862849116325,-0.01971256732940674,-0.11654754728078842
1760107091543114500,8.355114501953125,0.00028171297162771225,-0.054379627108573914,-0.08233394473791122
1760107091553180400,8.365180419921876,-0.0022301804274320602,-0.08915918320417404,-0.03395869582891464
1760107091563246600,8.37524658203125,-0.011299415491521358,-0.10593918710947037,0.009959137998521328
1760107091573311200,8.385311279296875,-0.019246021285653114,-0.09854438900947571,0.027857711538672447
1760107091583377400,8.39537744140625,-0.016087938100099564,-0.07016152143478394,0.024419661611318588
1760107091593443300,8.405443359375,-0.00710269995033741,-0.034488480538129807,0.016820864751935005
1760107091603509500,8.415509521484376,0.00574867706745863,-0.011413401924073696,0.011959648691117764
1760107091613575400,8.425575439453125,0.008244059048593044,-0.00009363610297441483,0.00333526823669672
1760107091623641600,8.4356416015625,0.008934483863413334,-0.0018894867971539497,0.001763792592100799
1760107091633707500,8.44570751953125,0.002685375977307558,-0.01895688660442829,0.00013127480633556843
1760107091643773400,8.4557734375,-0.010540073737502098,-0.033631179481744766,0.008913439698517323
1760107091653838300,8.46583837890625,-0.0282993633300066,-0.0445898212492466,0.026594433933496475
1760107091663904500,8.475904541015625,-0.049344323575496674,-0.04434328153729439,0.046112533658742905
1760107091673970400,8.485970458984376,-0.05992826074361801,-0.021352212876081467,0.06282013654708862
1760107091684036600,8.49603662109375,-0.061924465000629425,0.003661124035716057,0.06968403607606888
1760107091694102500,8.5061025390625,-0.061686910688877106,0.019716523587703705,0.06572311371564865
1760107091704168200,8.516168212890625,-0.06226928159594536,0.02319612167775631,0.04439070448279381
1760107091714234400,8.526234375,-0.06753595173358917,0.010941319167613983,0.026628222316503525
1760107091724299500,8.536299560546874,-0.06958974152803421,-0.011225191876292229,0.013606740161776543
1760107091734365400,8.546365478515625,-0.0749826431274414,-0.043278466910123825,0.004986620042473078
1760107091744431600,8.556431640625,-0.08206447213888168,-0.07018838822841644,-0.002082353923469782
1760107091754497500,8.56649755859375,-0.08582724630832672,-0.07525531947612762,-0.007584178354591131
1760107091764563200,8.576563232421876,-0.08099287003278732,-0.07543063908815384,-0.013445879332721233
1760107091774629400,8.58662939453125,-0.08262485265731812,-0.07262659817934036,-0.02717500738799572
1760107091784695300,8.5966953125,-0.08538113534450531,-0.06085779145359993,-0.040928203612565994
1760107091794761500,8.606761474609375,-0.08789436519145966,-0.03731704503297806,-0.04654800891876221
1760107091804826600,8.61682666015625,-0.07919436693191528,-0.019636336714029312,-0.046081844717264175
1760107091814892500,8.626892578125,-0.06884479522705078,-0.00012788362801074982,-0.0312858521938324
1760107091824958200,8.636958251953125,-0.05971276015043259,0.0019664056599140167,-0.01241803728044033
1760107091835024400,8.6470244140625,-0.04480678215622902,-0.017609959468245506,0.011339224874973297
1760107091845090300,8.65709033203125,-0.03404970467090607,-0.0398135744035244,0.029605930671095848
1760107091855156500,8.667156494140626,-0.03105977550148964,-0.05879392474889755,0.04254329949617386
1760107091865222400,8.677222412109375,-0.02899065986275673,-0.06775976717472076,0.043219566345214844
1760107091875288600,8.68728857421875,-0.04320847988128662,-0.06161265820264816,0.03150751814246178
1760107091885353200,8.697353271484374,-0.061942122876644135,-0.04540559649467468,0.01108492910861969
1760107091895419400,8.70741943359375,-0.07918662577867508,-0.018331367522478104,-0.008247223682701588
1760107091905485300,8.7174853515625,-0.09211636334657669,0.008618724532425404,-0.021492352709174156
1760107091915551500,8.727551513671875,-0.09430840611457825,0.02060534805059433,-0.03498126566410065
1760107091925617400,8.737617431640626,-0.0829765796661377,0.015618152916431427,-0.04327038303017616
1760107091935683600,8.74768359375,-0.05683685466647148,-0.003404807299375534,-0.04590291529893875
1760107091945749500,8.75774951171875,-0.026889953762292862,-0.017527922987937927,-0.03470562770962715
1760107091955815400,8.7678154296875,-0.016176322475075722,-0.01977642998099327,-0.01065834891051054
1760107091965880300,8.77788037109375,-0.017419064417481422,-0.01588507369160652,-0.0006486457423307002
1760107091975946500,8.787946533203124,-0.030627276748418808,-0.013604075647890568,0.005736815743148327
1760107091986012400,8.798012451171875,-0.04657265543937683,-0.011716482229530811,0.0025972959119826555
1760107091996078600,8.80807861328125,-0.053634557873010635,0.0051490506157279015,-0.0035977493971586227
1760107092006144500,8.81814453125,-0.05338076874613762,0.0175640806555748,-0.01835029199719429
1760107092016210400,8.82821044921875,-0.04905100166797638,0.03178136795759201,-0.031618960201740265
1760107092026276400,8.8382763671875,-0.028843913227319717,0.048253752291202545,-0.04703206941485405
1760107092036342300,8.84834228515625,-0.011284894309937954,0.05206979811191559,-0.04987739026546478
1760107092046407400,8.858407470703124,0.005908011458814144,0.0521710030734539,-0.02986638806760311
1760107092056473600,8.8684736328125,0.014446372166275978,0.042860329151153564,0.0045973132364451885
1760107092066539500,8.87853955078125,0.009560460224747658,0.02144228294491768,0.03135625272989273
1760107092076605400,8.88860546875,-0.0006479690782725811,-0.004078523721545935,0.055210717022418976
1760107092086671400,8.89867138671875,-0.011316923424601555,-0.022747468203306198,0.05738141015172005
1760107092096737300,8.9087373046875,-0.013379009440541267,-0.028816012665629387,0.04253242164850235
1760107092106803500,8.918803466796875,-0.019802626222372055,-0.022660933434963226,0.009069262072443962
1760107092116868600,8.92886865234375,-0.018907537683844566,-0.015910085290670395,-0.029531393200159073
1760107092126934500,8.9389345703125,-0.019015057012438774,0.0006753001362085342,-0.05777314305305481
1760107092137000400,8.94900048828125,-0.024436186999082565,0.022780070081353188,-0.05830923467874527
1760107092147066400,8.95906640625,-0.03748328611254692,0.0343942865729332,-0.054101403802633286
1760107092157132300,8.96913232421875,-0.047426462173461914,0.0323076993227005,-0.037791408598423004
1760107092167198500,8.979198486328125,-0.04744735360145569,0.023261595517396927,-0.02354430966079235
1760107092177264400,8.989264404296875,-0.04168347641825676,0.00796226691454649,-0.011162209324538708
1760107092187330600,8.99933056640625,-0.04445812478661537,-0.002083847299218178,-0.014990907162427902
1760107092197395500,9.0093955078125,-0.04536572843790054,-0.0052612642757594585,-0.025000130757689476
1760107092207461400,9.01946142578125,-0.045951176434755325,0.019505131989717484,-0.031230799853801727
1760107092217527300,9.02952734375,-0.05241173878312111,0.09681722521781921,-0.034887321293354034
1760107092227593500,9.039593505859376,-0.04738786071538925,0.11982137709856033,-0.04418132081627846
1760107092237659400,9.049659423828125,-0.03691711276769638,0.09306007623672485,-0.039902154356241226
1760107092247725600,9.0597255859375,-0.023541565984487534,0.05826713889837265,-0.023063048720359802
1760107092257791500,9.06979150390625,-0.011609806679189205,0.012457842007279396,0.013484308496117592
1760107092267857700,9.079857666015625,-0.0136659424751997,-0.03345022723078728,0.052912041544914246
1760107092277922300,9.08992236328125,-0.030832679942250252,-0.03898853808641434,0.08065392076969147
1760107092287988500,9.099988525390625,-0.047714971005916595,-0.02212218940258026,0.0852096825838089
1760107092298054400,9.110054443359376,-0.045003339648246765,-0.005883031524717808,0.08504563570022583
1760107092308120600,9.12012060546875,-0.03220405802130699,0.01037646271288395,0.07528364658355713
1760107092318186500,9.1301865234375,-0.01745494082570076,0.021832050755620003,0.05373573675751686
1760107092328252700,9.140252685546875,-0.0030395856592804193,0.02853734791278839,0.03732426464557648
1760107092338318300,9.150318359375,0.00005527399480342865,0.03128546476364136,0.01990666054189205
1760107092348383500,9.160383544921874,-0.004464461002498865,0.04497923702001572,0.011216562241315842
1760107092358449400,9.170449462890625,-0.01013086922466755,0.05732857808470726,0.01475457288324833
1760107092368515600,9.180515625,-0.01482567097991705,0.053303152322769165,0.024539494886994362
1760107092378581500,9.19058154296875,-0.028144406154751778,0.03286604955792427,0.03103095106780529
1760107092388647700,9.200647705078126,-0.020975448191165924,-0.00010584387928247452,0.028806449845433235
1760107092398713300,9.21071337890625,-0.0169181227684021,-0.03808198869228363,0.01643979363143444
1760107092408779300,9.220779296875,-0.010480528697371483,-0.039589252322912216,-0.01725749671459198
1760107092418845400,9.230845458984374,-0.006095900200307369,-0.004484261851757765,-0.061151452362537384
1760107092428910600,9.24091064453125,-0.001201464794576168,0.02690146490931511,-0.09734942764043808
1760107092438976500,9.2509765625,0.006025821436196566,0.04430602118372917,-0.11321787536144257
1760107092449042400,9.26104248046875,0.013227970339357853,0.04481712356209755,-0.10268756747245789
1760107092459108400,9.2711083984375,0.01248681265860796,0.014430721290409565,-0.07438988238573074
1760107092469174300,9.28117431640625,0.012255396693944931,-0.014768782071769238,-0.04662489891052246
1760107092479240400,9.291240478515626,0.0035553821362555027,-0.011991105042397976,-0.019676638767123222
1760107092489306400,9.301306396484375,-0.0004324023611843586,0.012407119385898113,-0.006152227055281401
1760107092499372500,9.31137255859375,-0.003748304210603237,0.050783269107341766,-0.0037394030950963497
1760107092509437400,9.3214375,0.005385890137404203,0.06610064953565598,-0.014646176248788834
1760107092519503400,9.33150341796875,0.015718689188361168,0.04623772203922272,-0.030295442789793015
1760107092529569300,9.3415693359375,0.02742936462163925,0.0021876702085137367,-0.042033638805150986
1760107092539635500,9.351635498046875,0.02460135519504547,-0.04649491235613823,-0.05424982309341431
1760107092549701400,9.361701416015626,0.008425869047641754,-0.07189346104860306,-0.0500517264008522
1760107092559767600,9.371767578125,-0.01062052696943283,-0.06039206683635712,-0.028878530487418175
1760107092569833500,9.38183349609375,-0.022666320204734802,-0.023082122206687927,-0.009466757997870445
1760107092579899600,9.391899658203124,-0.022933967411518097,0.0067822979763150215,-0.0006967020453885198
1760107092589964300,9.40196435546875,-0.005898650735616684,0.029547709971666336,-0.004235869739204645
1760107092600030500,9.412030517578126,0.020513249561190605,0.032056406140327454,-0.00948575884103775
1760107092610096400,9.422096435546875,0.03502962738275528,0.020969949662685394,-0.00419576745480299
1760107092620162600,9.43216259765625,0.03605494275689125,0.0013517746701836586,0.008549588732421398
1760107092630228500,9.442228515625,0.02362106181681156,-0.00736196618527174,0.023804159834980965
1760107092640294700,9.452294677734375,0.009110560640692711,-0.0021072831004858017,0.04755609109997749
1760107092650360300,9.4623603515625,0.001102786511182785,0.001329728402197361,0.060775164514780045
1760107092660425500,9.472425537109375,0.000007694587111473083,0.006488271057605743,0.04877735674381256
1760107092670491400,9.482491455078126,0.008276140317320824,0.0046451641246676445,0.024886079132556915
1760107092680557600,9.4925576171875,0.020002838224172592,0.007851078175008297,-0.008114481344819069
1760107092690623500,9.50262353515625,0.03161783516407013,0.01801968365907669,-0.04057896137237549
1760107092700689700,9.512689697265625,0.030158953741192818,0.027387086302042007,-0.05270353704690933
1760107092710755300,9.52275537109375,0.028519509360194206,0.022498320788145065,-0.04870053753256798
1760107092720821500,9.532821533203125,0.018584588542580605,-0.004545013885945082,-0.028726032003760338
1760107092730887400,9.542887451171875,0.012210765853524208,-0.038367800414562225,-0.0032198466360569
1760107092740952600,9.55295263671875,0.009894881397485733,-0.056892748922109604,0.014864347875118256
1760107092751018500,9.5630185546875,0.0012777689844369888,-0.05040491372346878,0.01455646101385355
1760107092761084700,9.573084716796876,-0.005410759709775448,-0.016179032623767853,0.0010547662386670709
1760107092771150300,9.583150390625,-0.014503499493002892,0.02610134333372116,-0.018672700971364975
1760107092781216300,9.59321630859375,-0.015731750056147575,0.048931024968624115,-0.031311530619859695
1760107092791282400,9.603282470703125,-0.016025424003601074,0.036206454038619995,-0.041390787810087204
1760107092801348400,9.613348388671875,-0.009421318769454956,0.0026383735239505768,-0.03839952498674393
1760107092811413500,9.62341357421875,-0.003861339297145605,-0.02819824032485485,-0.019783634692430496
1760107092821479700,9.633479736328125,-0.00444803386926651,-0.05209691449999809,0.0026889187283813953
1760107092831545300,9.64354541015625,-0.010668953880667686,-0.05062982812523842,0.02297789976000786
1760107092841611300,9.653611328125,-0.01815163716673851,-0.02885103039443493,0.03706682100892067
1760107092851677400,9.663677490234376,-0.02162918448448181,-0.0033746380358934402,0.03396831080317497
1760107092861743400,9.673743408203125,-0.015680216252803802,0.011526280082762241,0.03227347508072853
1760107092871809500,9.6838095703125,-0.001981394598260522,0.015029409900307655,0.02938033826649189
1760107092881875500,9.69387548828125,0.0122715774923563,0.013575056567788124,0.03252872824668884
1760107092891940400,9.7039404296875,0.010606016963720322,0.0004443228244781494,0.03061695769429207
1760107092902006300,9.71400634765625,0.002062596380710602,-0.007921731099486351,0.024776112288236618
1760107092912072400,9.724072509765625,-0.008455552160739899,-0.008273705840110779,0.01800845004618168
1760107092922138400,9.734138427734376,-0.017169680446386337,-0.0037971981801092625,0.010386216454207897
1760107092932204500,9.74420458984375,-0.025851242244243622,-0.011117854155600071,0.010387786664068699
1760107092942270500,9.7542705078125,-0.027073632925748825,-0.020069271326065063,0.0047972798347473145
1760107092952336600,9.764336669921875,-0.025685250759124756,-0.021063588559627533,0.001954594161361456
1760107092962401300,9.7744013671875,-0.020626842975616455,-0.015506105497479439,-0.005387474782764912
1760107092972467500,9.784467529296874,-0.012388676404953003,-0.01154873427003622,-0.005898086819797754
1760107092982533400,9.794533447265625,-0.007129199802875519,-0.003452991135418415,-0.0023006887640804052
1760107092992599600,9.804599609375,-0.0035410982090979815,-0.0034840418957173824,0.005566405598074198
1760107093002665500,9.81466552734375,-0.0019493268337100744,-0.0002680085599422455,0.01814424991607666
1760107093012731600,9.824731689453126,-0.0029329548124223948,0.0005741147324442863,0.02740088663995266
1760107093022797300,9.83479736328125,-0.0028733001090586185,0.002400510013103485,0.029905322939157486
1760107093032863500,9.844863525390625,-0.0013096940238028765,0.000676826573908329,0.02618812955915928
1760107093042928400,9.854928466796874,-0.0026103819254785776,-0.01462756097316742,0.014728281646966934
1760107093052994600,9.86499462890625,-0.00391653785482049,-0.030702956020832062,0.007924150675535202
1760107093063060500,9.875060546875,-0.01257314346730709,-0.03333389386534691,0.005034620873630047
1760107093073126700,9.885126708984375,-0.020847078412771225,-0.023291228339076042,0.015297792851924896
1760107093083192300,9.8951923828125,-0.027286868542432785,-0.0016599688678979874,0.030926289036870003
1760107093093258500,9.905258544921875,-0.03182196617126465,0.009210788644850254,0.04570336639881134
1760107093103324400,9.915324462890625,-0.032527703791856766,0.014692372642457485,0.043929968029260635
1760107093113390300,9.925390380859374,-0.026423029601573944,0.008528721518814564,0.032079536467790604
1760107093123455500,9.93545556640625,-0.01373413298279047,0.00034749042242765427,0.014058724977076054
1760107093133522000,9.94552197265625,-0.001809620764106512,-0.0064380657859146595,0.00441267155110836
1760107093143588000,9.955588134765625,0.010807903483510017,-0.013236051425337791,0.0059581040404737
1760107093153654000,9.965654052734376,0.011372012086212635,-0.02088013105094433,0.015100590884685516
1760107093163720200,9.97572021484375,0.011921157129108906,-0.021389327943325043,0.02288581058382988
1760107093173785900,9.985785888671876,0.0020879870280623436,-0.02155761606991291,0.027461808174848557
1760107093183852000,9.99585205078125,-0.0050817751325666904,-0.021460678428411484,0.02237490378320217
1760107093193917000,10.0059169921875,-0.01385941356420517,-0.017448341473937035,0.007903305813670158
1760107093203983000,10.015983154296874,-0.01764722727239132,-0.0018565990030765533,-0.013065624982118607
1760107093214049000,10.026049072265625,-0.006523441523313522,0.02085735835134983,-0.0236252062022686
1760107093224115200,10.036115234375,0.004345451481640339,0.03059174306690693,-0.02795444056391716
1760107093234180900,10.046180908203125,0.01955484226346016,0.024588018655776978,-0.022523216903209686
1760107093244247000,10.0562470703125,0.027651119977235794,0.005023638717830181,-0.010861234739422798
1760107093254313000,10.06631298828125,0.022849073633551598,-0.020820338279008865,-0.00038155820220708847
1760107093264379100,10.076379150390625,0.013097377493977547,-0.04437892884016037,0.010303842835128307
1760107093274444000,10.086444091796874,0.0024108663201332092,-0.05453265458345413,0.012480553239583969
1760107093284510200,10.09651025390625,-0.005179675295948982,-0.041616056114435196,-0.001937801018357277
1760107093294575900,10.106575927734376,-0.003423489863052964,-0.016399260610342026,-0.014652403071522713
1760107093304642000,10.11664208984375,0.005360946524888277,0.010723703540861607,-0.029524028301239014
1760107093314708000,10.1267080078125,0.0157415010035038,0.022489219903945923,-0.0343468114733696
1760107093324774100,10.136774169921875,0.017394259572029114,0.025914311408996582,-0.017757181078195572
1760107093334840000,10.146840087890626,0.0157769862562418,0.0086454963311553,0.004471474327147007
1760107093344905200,10.1569052734375,0.01241607777774334,-0.010896513238549232,0.02449072152376175
1760107093354971000,10.166970947265625,0.006794514134526253,-0.024013690650463104,0.039205845445394516
1760107093365037000,10.177037109375,0.0003344840370118618,-0.0165397971868515,0.040100134909152985
1760107093375103000,10.18710302734375,-0.003362977644428611,-0.007443757727742195,0.0330323800444603
1760107093385169200,10.197169189453126,0.0027764076367020607,0.006703220307826996,0.012399538420140743
1760107093395235000,10.207235107421875,0.013390226289629936,0.01823425479233265,-0.004694409668445587
1760107093405301000,10.217301025390626,0.02514861524105072,0.02039754018187523,-0.013775522820651531
1760107093415367200,10.2273671875,0.024925950914621353,0.014711554162204266,-0.010640186257660389
1760107093425432000,10.23743212890625,0.01575375720858574,0.0075585683807730675,0.0011014248011633754
1760107093435498000,10.247498046875,0.001732928678393364,0.010607949458062649,0.01770390011370182
1760107093445564000,10.25756396484375,-0.007350847125053406,0.012129680253565311,0.03179868310689926
1760107093455630000,10.267630126953126,-0.009147772565484047,0.014735021628439426,0.04279870167374611
1760107093465696000,10.277696044921875,-0.005938663147389889,0.00969818513840437,0.03556529060006142
1760107093475762200,10.28776220703125,0.002018601167947054,0.015866423025727272,0.014440528117120266
1760107093485827800,10.297827880859375,0.00718300323933363,0.010341696441173553,-0.017653226852416992
1760107093495893000,10.30789306640625,0.010826746933162212,0.0056450385600328445,-0.03440854325890541
1760107093505959000,10.317958984375,0.005129712633788586,0.007746271789073944,-0.0300044734030962
1760107093516025000,10.328025146484375,-0.0027065861504524946,0.005746771581470966,-0.0181527491658926
1760107093526091000,10.338091064453126,-0.008484047837555408,0.007746539078652859,-0.0014611220685765147
1760107093536157200,10.3481572265625,-0.009207772091031075,0.011722608469426632,0.012350542470812798
1760107093546222800,10.358222900390626,0.002023576758801937,0.007058880291879177,0.02102898620069027
1760107093556289000,10.3682890625,0.011542923748493195,0.002964301034808159,0.018896615132689476
1760107093566355000,10.37835498046875,0.01518186740577221,-0.0032696258276700974,0.011397152207791805
1760107093576420000,10.388420166015624,0.009420585818588734,-0.001786697655916214,-0.009972100146114826
1760107093586486000,10.398486083984375,-0.002787078730762005,0.008941846899688244,-0.031723201274871826
1760107093596552200,10.40855224609375,-0.014235872775316238,0.02124052122235298,-0.04477556422352791
1760107093606617900,10.418617919921875,-0.021866627037525177,0.02929072454571724,-0.04479873180389404
1760107093616684000,10.42868408203125,-0.028013456612825394,0.036669738590717316,-0.026232313364744186
1760107093626750000,10.43875,-0.01337272860109806,0.03842289745807648,-0.004668697249144316
1760107093636816100,10.448816162109376,0.0030290046706795692,0.030626462772488594,0.019824907183647156
1760107093646881000,10.458881103515624,0.01629447564482689,0.014708481729030609,0.03785477206110954
1760107093656947200,10.468947265625,0.018684260547161102,-0.0005073845386505127,0.042686108499765396
1760107093667012900,10.479012939453124,0.005902685225009918,-0.010530723258852959,0.0345485545694828
1760107093677079000,10.4890791015625,-0.004729679320007563,-0.014259910210967064,0.01682579331099987
1760107093687145000,10.49914501953125,-0.01035640574991703,-0.014825033023953438,-0.006136247888207436
1760107093697211100,10.509211181640625,-0.014310994185507298,-0.011038386262953281,-0.02557394839823246
1760107093707277000,10.519277099609376,-0.008323143236339092,-0.0018986836075782776,-0.03569529205560684
1760107093717343000,10.529343017578125,0.0012971390970051289,0.006954768672585487,-0.029867207631468773
1760107093727407900,10.539407958984375,0.008679421618580818,0.010746842250227928,-0.01950244978070259
1760107093737474000,10.54947412109375,0.009119998663663864,0.004956097342073917,-0.013965041376650333
1760107093747540000,10.5595400390625,0.012613799422979355,0.00004149880260229111,-0.005443724803626537
1760107093757606100,10.569606201171876,0.015402649529278278,-0.009430221281945705,-0.0024196309968829155
1760107093767672000,10.579672119140625,0.009729317389428616,-0.016033262014389038,-0.008490039967000484
1760107093777738000,10.589738037109376,0.00328970979899168,-0.016402047127485275,-0.015031765215098858
1760107093787804200,10.59980419921875,0.008393391966819763,-0.005606924183666706,-0.016172131523489952
1760107093797869000,10.609869140625,0.010172356851398945,0.0034700781106948853,-0.012191887944936752
1760107093807935000,10.61993505859375,0.009221874177455902,0.018733985722064972,-0.00844908133149147
1760107093818001200,10.630001220703125,0.010517020709812641,0.03399358689785004,0.0031020815949887037
1760107093828067000,10.640067138671874,0.00816331896930933,0.033982135355472565,0.008387125097215176
1760107093838133000,10.650133056640625,0.0074501121416687965,0.01343353372067213,0.013514050282537937
1760107093848199200,10.66019921875,-0.000603819265961647,-0.014895042404532433,0.012906850315630436
1760107093858264800,10.670264892578125,-0.005503340158611536,-0.029366079717874527,0.009801779873669147
1760107093868331000,10.6803310546875,-0.011642192490398884,-0.0304768867790699,0.016184577718377113
1760107093878396200,10.690396240234374,-0.012283319607377052,-0.021669235080480576,0.013035831972956657
1760107093888462000,10.700462158203125,-0.01058954931795597,-0.003995167091488838,0.002629796974360943
1760107093898528000,10.710528076171874,-0.00451751658692956,0.006852266378700733,-0.012748775072395802
1760107093908594200,10.72059423828125,-0.00676202867180109,0.009814235381782055,-0.029762115329504013
1760107093918659800,10.730659912109376,-0.012912501581013203,0.009845784865319729,-0.046066392213106155
1760107093928726000,10.74072607421875,-0.01720178872346878,0.015237088315188885,-0.050325050950050354
1760107093938792000,10.7507919921875,-0.02143852226436138,0.015429399907588959,-0.0478510782122612
1760107093948857000,10.760857177734374,-0.014883416704833508,0.002238496206700802,-0.041248567402362823
1760107093958923000,10.770923095703125,-0.004979581572115421,-0.016548223793506622,-0.03308996185660362
1760107093968989200,10.7809892578125,0.005135370884090662,-0.019814325496554375,-0.02019866555929184
1760107093979054800,10.791054931640625,0.010646503418684006,-0.017526859417557716,-0.004099782090634108
1760107093989121000,10.80112109375,0.005377438850700855,-0.003173219505697489,0.007664198987185955
1760107093999187000,10.81118701171875,-0.0022994598839432,0.006851969286799431,0.010635478422045708
1760107094009253000,10.821253173828126,-0.002673900220543146,0.008226694539189339,0.004128576256334782
1760107094019319000,10.831319091796875,0.0014430140145123005,0.013543503358960152,-0.0035035593900829554
1760107094029384200,10.84138427734375,-0.002358115976676345,0.020554807037115097,-0.022468727082014084
1760107094039449900,10.851449951171874,-0.004699683282524347,0.012615786865353584,-0.035513438284397125
1760107094049516000,10.86151611328125,-0.0033904733136296272,0.005316328257322311,-0.0385931171476841
1760107094059582000,10.87158203125,-0.00438561849296093,-0.008970622904598713,-0.033652715384960175
1760107094069648100,10.881648193359375,-0.003782146144658327,-0.026051606982946396,-0.0171967763453722
1760107094079714000,10.891714111328126,0.0016611991450190544,-0.03872847184538841,-0.000971947330981493
1760107094089780000,10.901780029296875,0.0017605354078114033,-0.039225682616233826,0.007389312610030174
1760107094099844900,10.911844970703125,0.0019806819036602974,-0.03721432387828827,0.009680302813649178
1760107094109911000,10.9219111328125,-0.004152311943471432,-0.01753942109644413,0.0017467460129410028
1760107094119977000,10.93197705078125,-0.004192552529275417,0.014229845255613327,-0.014239262789487839
1760107094130042600,10.942042724609376,-0.0003221803344786167,0.03849443793296814,-0.02988826297223568
1760107094140108300,10.9521083984375,0.005471371579915285,0.03843589872121811,-0.032987330108881
1760107094150174500,10.962174560546876,0.005253791343420744,0.015604888089001179,-0.027818666771054268
1760107094160240400,10.972240478515625,0.00483739422634244,-0.012087762355804443,-0.004985278472304344
1760107094170306600,10.982306640625,-0.004494855180382729,-0.04092793166637421,0.00923919677734375
1760107094180371500,10.992371337890624,-0.016891010105609894,-0.05256931111216545,0.0062986211851239204
1760107094190437600,11.002437744140625,-0.02558756247162819,-0.04419420287013054,0.0002444569254294038
1760107094200503300,11.01250341796875,-0.025026429444551468,-0.02356686070561409,-0.009077975526452065
1760107094210569500,11.022569580078125,-0.01867052912712097,-0.001589655876159668,-0.019494663923978806
1760107094220635400,11.032635498046876,-0.008812656626105309,0.012446862645447254,-0.022348444908857346
1760107094230701600,11.04270166015625,0.0018269382417201996,0.019087720662355423,-0.019677825272083282
1760107094240767500,11.052767578125,0.003512550611048937,0.019829269498586655,-0.01284189522266388
1760107094250832600,11.06283251953125,-0.0014814094174653292,0.03044942393898964,-0.003416170133277774
1760107094260898300,11.072898193359375,-0.0053850384429097176,0.03968950733542442,0.009876699186861515
1760107094270964500,11.082964599609374,-0.005951492581516504,0.038721714168787,0.019535185769200325
1760107094281030400,11.093030517578125,-0.009223697707057,0.019727271050214767,0.019072484225034714
1760107094291096600,11.1030966796875,-0.010993635281920433,-0.011017591692507267,0.01875503547489643
1760107094301162500,11.11316259765625,-0.013672737404704094,-0.030989671126008034,0.02065737172961235
1760107094311228400,11.123228515625,-0.020044617354869843,-0.03711201250553131,0.011354952119290829
1760107094321294600,11.133294677734375,-0.02903900109231472,-0.017098121345043182,0.009847437962889671
1760107094331359500,11.143359375,-0.03311523422598839,0.021141942590475082,0.007119561079889536
1760107094341425400,11.15342529296875,-0.02917473018169403,0.04543719440698624,0.004711962305009365
1760107094351491300,11.1634912109375,-0.01829145848751068,0.051141150295734406,-0.003212273120880127
1760107094361557500,11.1735576171875,-0.015340011566877365,0.03922787308692932,-0.00918538123369217
1760107094371623400,11.18362353515625,-0.019506793469190598,0.027747783809900284,-0.005559487268328667
1760107094381689600,11.193689697265626,-0.03093082644045353,0.007480395957827568,-0.0015261885710060596
1760107094391755300,11.20375537109375,-0.04093925282359123,-0.011779851280152798,0.003429954405874014
1760107094401820400,11.2138203125,-0.041636183857917786,-0.02516355738043785,0.007496221922338009
1760107094411886300,11.22388623046875,-0.024962930008769035,-0.019463060423731804,0.016532594338059425
1760107094421952500,11.233952392578125,-0.008979273028671741,-0.00877973809838295,0.026606976985931396
1760107094432018400,11.244018310546876,0.0014137132093310356,0.007330789230763912,0.02234725095331669
1760107094442084600,11.254084716796875,0.004172215703874826,0.019757632166147232,0.008597349748015404
1760107094452150300,11.264150390625,-0.007051410619169474,0.02773752436041832,-0.003756522201001644
1760107094462216400,11.274216552734375,-0.017259590327739716,0.030693888664245605,-0.01028301939368248
1760107094472281300,11.28428125,-0.02071637474000454,0.03004354238510132,-0.0027960739098489285
1760107094482347500,11.294347412109374,-0.017444279044866562,0.016714084893465042,0.007384715136140585
1760107094492413400,11.304413330078125,0.0018974593840539455,0.0024046534672379494,0.026664670556783676
1760107094502479600,11.314479736328124,0.011540624313056469,-0.014148778282105923,0.044726740568876266
1760107094512545300,11.324545166015625,0.017248045653104782,-0.026643000543117523,0.05132099241018295
1760107094522611500,11.334611572265626,0.0118603790178895,-0.025830499827861786,0.043900199234485626
1760107094532677400,11.344677490234375,-0.0005182600580155849,-0.0059473393484950066,0.023248182609677315
1760107094542743600,11.35474365234375,-0.015220016241073608,0.02405840903520584,-0.005803375970572233
1760107094552808400,11.364808349609374,-0.019760705530643463,0.04907987266778946,-0.037232935428619385
1760107094562874600,11.37487451171875,-0.020062031224370003,0.04747961834073067,-0.05892356112599373
1760107094572940300,11.384940185546874,-0.011245368979871273,0.029246285557746887,-0.0568271204829216
1760107094583006500,11.39500634765625,-0.007094670087099075,0.002436824142932892,-0.04187942296266556
1760107094593072400,11.405072265625,-0.00886780209839344,-0.032930485904216766,-0.02293369360268116
1760107094603138600,11.415138671875,-0.012248523533344269,-0.051524098962545395,-0.008135664276778698
1760107094613204500,11.42520458984375,-0.012162769213318825,-0.0445181205868721,0.0017457285430282354
1760107094623269600,11.43526953125,-0.013537896797060966,-0.024893490597605705,-0.0015023213345557451
1760107094633335300,11.445335205078125,-0.012130415067076683,-0.000048329122364521027,-0.018780112266540527
1760107094643401500,11.4554013671875,-0.014080371707677841,0.021779658272862434,-0.03471015393733978
1760107094653467400,11.46546728515625,-0.013264378532767296,0.024556802585721016,-0.038036707788705826
1760107094663533600,11.475533447265626,-0.005681396462023258,0.022871604189276695,-0.031336549669504166
1760107094673599500,11.485599609375,-0.001601966330781579,0.02282925881445408,-0.007205379661172628
1760107094683665400,11.49566552734375,0.0037619005888700485,0.01579948514699936,0.010465797036886215
1760107094693730300,11.505730224609374,0.0029120859690010548,0.004127916879951954,0.024586942046880722
1760107094703796500,11.51579638671875,0.007442909758538008,0.0016882726922631264,0.03479384630918503
1760107094713862400,11.5258623046875,0.008632009848952293,-0.006640230771154165,0.03596803545951843
1760107094723928600,11.535928466796875,0.004803027492016554,-0.009782714769244194,0.02404325269162655
1760107094733994500,11.545994384765624,0.00015368126332759857,-0.000437149778008461,0.009940482676029205
1760107094744060400,11.556060302734375,-0.0002613365650177002,0.010941880755126476,-0.0036867738235741854
1760107094754126600,11.566126708984376,-0.0004749221261590719,0.01988823711872101,-0.005272952374070883
1760107094764192300,11.576192138671875,0.006371077615767717,0.02348467893898487,-0.0062543535605072975
1760107094774257400,11.58625732421875,0.014261225238442421,0.021821269765496254,-0.0020492225885391235
1760107094784323300,11.5963232421875,0.02005689963698387,0.012169660069048405,0.01053696684539318
1760107094794389500,11.606389404296875,0.018749289214611053,-0.007404574658721685,0.01841406524181366
1760107094804455400,11.616455322265624,0.014734935946762562,-0.018259229138493538,0.026655610650777817
1760107094814521600,11.626521484375,0.015137606300413609,-0.018066681921482086,0.02247045189142227
1760107094824587300,11.636587158203126,0.012245938181877136,-0.007580578792840242,0.012940102256834507
1760107094834653400,11.6466533203125,0.003792000003159046,0.011019203811883926,-0.006305497605353594
1760107094844718300,11.65671826171875,0.008715410716831684,0.016619402915239334,-0.02372778207063675
1760107094854784500,11.666784423828124,0.010357515886425972,0.013691254891455173,-0.03447975963354111
1760107094864850400,11.676850341796875,0.014210546389222145,0.01066491100937128,-0.03144330531358719
1760107094874916600,11.68691650390625,0.016192205250263214,-0.004642937798053026,-0.023666607216000557
1760107094884982300,11.696982177734375,0.01835223287343979,-0.014176890254020691,-0.009502671658992767
1760107094895048400,11.70704833984375,0.020879307761788368,-0.013898590579628944,0.0036528115160763264
1760107094905114400,11.7171142578125,0.019237231463193893,-0.034139517694711685,0.02365315891802311
1760107094915179500,11.727179443359375,0.015983382239937782,-0.038828011602163315,0.03705577924847603
1760107094925245400,11.737245361328124,0.0006315363571047783,0.0019497787579894066,0.027237650007009506
1760107094935311600,11.7473115234375,0.0010616369545459747,0.016348689794540405,0.00033013615757226944
1760107094945377300,11.757377197265624,0.006105839274823666,0.0008408064022660255,-0.034620821475982666
1760107094955443500,11.767443359375,0.011166111566126347,0.010387440212070942,-0.05488348379731178
1760107094965509400,11.77750927734375,0.016430558636784554,0.006018227897584438,-0.048627618700265884
1760107094975575600,11.787575439453125,0.0123833529651165,-0.019739598035812378,-0.015609745867550373
1760107094985641500,11.797641357421876,0.0003803498111665249,-0.036471299827098846,0.02366379089653492
1760107094995706600,11.80770654296875,-0.014942413195967674,-0.04366263747215271,0.056126661598682404
1760107095005772300,11.817772216796875,-0.022043272852897644,-0.03504069894552231,0.07029273360967636
1760107095015838500,11.82783837890625,-0.018811259418725967,-0.004952306859195232,0.06255331635475159
1760107095025904400,11.837904296875,-0.003346459474414587,0.03393040969967842,0.0527421310544014
1760107095035970600,11.847970458984374,0.0008248495869338512,0.08575951308012009,0.024790124967694283
1760107095046036500,11.858036376953125,0.002513253130018711,0.12428099662065506,0.0019341466249898076
1760107095056102400,11.868102294921876,-0.017727304250001907,0.14910244941711426,-0.01001172885298729
1760107095066167300,11.878167236328125,-0.06090026721358299,0.13070909678936005,0.012534338049590588
1760107095076233500,11.8882333984375,-0.102999247610569,0.1241140365600586,0.06968897581100464
1760107095086299400,11.89829931640625,-0.14872796833515167,0.10394924134016037,0.11090163886547089
1760107095096365600,11.908365478515625,-0.16080167889595032,0.0502772219479084,0.11689534783363342
1760107095106431500,11.918431396484374,-0.12385392934083939,0.004945834167301655,0.10216595232486725
1760107095116497400,11.928497314453125,-0.06560686975717545,0.01842116191983223,0.06320789456367493
1760107095126563600,11.9385634765625,0.0006610914133489132,0.0703444555401802,0.027509862557053566
1760107095136628200,11.948628173828125,0.04126151651144028,0.07990706712007523,0.007653599604964256
1760107095146694100,11.958694091796875,0.04294426366686821,0.038076043128967285,0.006769339554011822
1760107095156760000,11.968760009765624,-0.0030248272232711315,0.02788359299302101,0.0013924179365858436
1760107095166826000,11.978825927734375,-0.04234282299876213,0.06585268676280975,-0.045971352607011795
1760107095176892200,11.98889208984375,-0.055059682577848434,0.11173176020383835,-0.11840853840112686
1760107095186958000,11.9989580078125,-0.043076466768980026,0.11997620016336441,-0.17311164736747742
1760107095197024000,12.00902392578125,-0.01668400503695011,0.11329113692045212,-0.20607438683509827
1760107095207089200,12.019089111328125,0.01744983345270157,0.09165184199810028,-0.20637176930904388
1760107095217155000,12.029155029296875,0.008806811645627022,0.07574158906936646,0.005542080849409103
1760107095227221000,12.039220947265624,-0.04999798163771629,-0.10434075444936752,0.13082219660282135
