time,seconds_elapsed,z,y,x
1760107150452548900,0.067548828125,0.3826771288275718,-0.06499065082669257,0.4141832605404779
1760107150462614800,0.07761474609375,0.16295710406005381,-0.06560089167952537,0.3420904860910028
1760107150472680000,0.087679931640625,-0.17653730112314223,-0.16493337256908416,0.2027642137914896
1760107150482745900,0.097745849609375,-0.289700738966465,-0.23223113129436967,0.11633165608327835
1760107150492810800,0.107810791015625,-0.0847182646036148,-0.2547609430104494,0.07654179888074286
1760107150502876700,0.117876708984375,0.20254794069230556,-0.3430924296751618,0.16882110072262585
1760107150512941800,0.12794189453125,0.5667687908530235,-0.4005611605644226,0.33055344876069576
1760107150523007700,0.1380078125,0.8026315566480159,-0.40263504422903057,0.4938626541940495
1760107150533072600,0.14807275390625,0.695158439400792,-0.47590573988407847,0.6419667282436042
1760107150543138800,0.158138916015625,0.4981108496904373,-0.5072542333498596,0.6153731011547148
1760107150553203700,0.16820361328125,0.3936819224447012,-0.45978287260085343,0.46198882167991245
1760107150563270000,0.178269775390625,0.2921621606439352,-0.4599494613394141,0.2836312828596681
1760107150573334800,0.188334716796875,0.10485855083465576,-0.5003700267940759,0.02658270383607596
1760107150583400700,0.198400634765625,-0.04118482782542705,-0.4542503729149699,-0.19581114325057714
1760107150593465900,0.2084658203125,-0.08755611837804317,-0.289363177575171,-0.2836648198030889
1760107150603531800,0.21853173828125,-0.21848960618972776,-0.11132219389081001,-0.24850060397405177
1760107150613597000,0.228596923828125,-0.39759120484292504,-0.00651771133095026,-0.14723816880206578
1760107150623662600,0.23866259765625,-0.5945674828827381,-0.05884177280813455,-0.07196286445949227
1760107150633727700,0.248727783203125,-0.7794704612910747,-0.2023740454301238,-0.015041401322605088
1760107150643794000,0.2587939453125,-0.9146925862073898,-0.3206368522390723,-0.038473614371661094
1760107150653858800,0.26885888671875,-0.8922299945086241,-0.3118964964225888,-0.0476295835180208
1760107150663924700,0.2789248046875,-0.7000777756243943,-0.22767741351276635,-0.03677346852342598
1760107150673990000,0.288989990234375,-0.5071411283642053,-0.21990502594560382,0.011111117235547863
1760107150684055800,0.299055908203125,-0.34303193165957924,-0.3235778741270304,0.06998280112475622
1760107150694121000,0.309120849609375,-0.17963468261659143,-0.4407520089164376,0.011708083048276603
1760107150704187000,0.319186767578125,0.0047702831417322155,-0.5559130503177643,-0.16094172738334164
1760107150714251800,0.329251708984375,0.13027648520767687,-0.6377285792171955,-0.26067151876110584
1760107150724317700,0.339317626953125,0.28908757550418374,-0.6630345776483416,-0.30169839781215413
1760107150734382800,0.3493828125,0.42619595255851744,-0.6557540652513504,-0.3012456856085919
1760107150744449000,0.359448974609375,0.5315905099660158,-0.6345677770987153,-0.2847582593292929
1760107150754513700,0.369513671875,0.5810433999210596,-0.6674713910520076,-0.29220373476333916
1760107150764579800,0.379579833984375,0.5917296291083097,-0.7719570169210433,-0.3916500147582963
1760107150774644700,0.389644775390625,0.6104840139389037,-0.8984557371556758,-0.4179738849950954
1760107150784711000,0.3997109375,0.6295125395357608,-0.9995745169401168,-0.37830793730001894
1760107150794775800,0.40977587890625,0.8168710944026708,-0.9330506651967764,-0.23610380800925193
1760107150804841700,0.419841796875,1.0101029252171516,-0.6790574916884302,0.10275345918103121
1760107150814907000,0.429906982421875,0.8051338948577642,-0.5410471973583102,0.4811674598045647
1760107150824972800,0.439972900390625,0.41816111466288564,-0.5385957125529647,0.600946114536561
1760107150835037700,0.45003759765625,0.004015665382146835,-0.5490265056744218,0.46788609955757854
1760107150845103600,0.460103515625,-0.28976737446188927,-0.5913825692363083,0.21965784625150261
1760107150855168800,0.470168701171875,-0.5053443080753087,-0.7323821085102856,-0.02935773977367207
1760107150865235000,0.48023486328125,-0.45228024188578125,-0.925552856787294,-0.24907464100234208
1760107150875299600,0.490299560546875,-0.10095043748021125,-0.9402255252622067,-0.15213082708129658
1760107150885365800,0.50036572265625,0.38584932912290093,-0.687155750209093,0.2036681403612718
1760107150895431000,0.510430908203125,0.7807002953469753,-0.4489847074717283,0.5683713306788355
1760107150905496800,0.520496826171875,0.6956430080473422,-0.47662192532941694,0.8411182314306497
1760107150915562000,0.53056201171875,0.2993675619781017,-0.6590785334989429,0.6904160671792924
1760107150925627600,0.540627685546875,-0.1254740533620119,-0.7265808748856186,0.3526770542960614
1760107150935692800,0.55069287109375,-0.5214923097997903,-0.8805719976797699,-0.009094429951161146
1760107150945758700,0.5607587890625,-0.8702104704022408,-1.1256871604666112,-0.3702283104145899
1760107150955823900,0.570823974609375,-0.9856897839725017,-1.2954700188934802,-0.5336113117365167
1760107150965889800,0.580889892578125,-0.5204442620515823,-1.2521993247047065,-0.4017100383386016
1760107150975954700,0.59095458984375,0.10084873067140579,-1.1256731319412587,-0.16865389092955738
1760107150986020900,0.601020751953125,0.6571300297796726,-1.0120090510994195,-0.0003514255198650062
1760107150996085800,0.611085693359375,0.9458493564933538,-0.9639791796848177,0.009401943264063448
1760107151006152000,0.62115185546875,1.120967438468337,-0.9660425419554114,-0.006303721520397812
1760107151016216800,0.631216796875,1.3003759111136197,-0.9558695229873061,-0.006020721594244241
1760107151026282800,0.64128271484375,1.2765566441088914,-1.10486678301692,-0.20885405509918928
1760107151036348000,0.651347900390625,1.0534621744722128,-1.2934367595002054,-0.39260092227496207
1760107151046413800,0.661413818359375,0.6892810717999934,-1.324917062652111,-0.4008926575411111
1760107151056478700,0.671478759765625,0.3172960173785686,-1.210614391645789,-0.3936746889863163
1760107151066545000,0.681544921875,0.009532382977008818,-1.0496125133067369,-0.36505532822348175
1760107151076609800,0.69160986328125,-0.1560083078354597,-0.9894390535034239,-0.3533722700186074
1760107151086676000,0.701676025390625,-0.24578385582864284,-0.9360673826694488,-0.3360024714142084
1760107151096740600,0.71174072265625,-0.2684370016634464,-0.96547161019966,-0.3122963459277525
1760107151106806800,0.721806884765625,-0.26883739915788174,-0.9903330797336996,-0.24050470984932035
1760107151116872000,0.731871826171875,-0.1673281587511301,-0.9300636122100054,-0.1493147650135681
1760107151126937900,0.741937744140625,-0.045535424250364304,-0.8495729021735489,-0.06599594627856277
1760107151137002800,0.752002685546875,-0.0015641805768013,-0.8338765897393227,-0.004611608281568624
1760107151147068700,0.762068603515625,-0.14567162273824213,-0.9473045237377286,-0.059092130840010935
1760107151157133800,0.7721337890625,-0.40781157008409497,-1.0996529938913882,-0.3145500796712935
1760107151167199700,0.78219970703125,-0.6561357580453157,-1.180076922301948,-0.5544525858437642
1760107151177264600,0.7922646484375,-0.8444067515820264,-1.2041247373655437,-0.6432203815665095
1760107151187330800,0.802330810546875,-1.0905834061205386,-1.1631868700385093,-0.6595851678468286
1760107151197395500,0.8123955078125,-1.3548480905354021,-1.0987222889125345,-0.6464670353375375
1760107151207461600,0.822461669921875,-1.4276426931113004,-1.099900685042143,-0.5419205461267381
1760107151217526800,0.83252685546875,-1.2117138773202896,-1.0273746702745556,-0.3284861044347286
1760107151227592700,0.8425927734375,-0.9413894544750452,-0.9650535309180617,-0.1138115812874399
1760107151237657900,0.852657958984375,-0.7816150721043348,-0.9619128948047757,-0.05253050273552071
1760107151247723500,0.8627236328125,-0.5679460179388522,-0.8965984188511967,-0.2528608450101688
1760107151257788700,0.87278857421875,-0.4965022454500198,-0.8865551637426018,-0.3886963160518557
1760107151267854600,0.8828544921875,-0.5024631996810436,-0.9039338763058185,-0.44950325145311654
1760107151277919700,0.892919677734375,-0.49858372789919375,-0.8688970497161149,-0.42921361987926065
1760107151287985700,0.902985595703125,-0.4781996960401535,-0.7105173365741968,-0.38665553093925115
1760107151298050600,0.913050537109375,-0.3925070334464311,-0.4711328263938427,-0.34995420520342885
1760107151308116700,0.92311669921875,-0.22876491648852823,-0.2545619133070111,-0.3014713293243199
1760107151318181600,0.933181640625,-0.22739362813532352,-0.09241524884700775,-0.2711433380126953
1760107151328247800,0.943247802734375,-0.5280629203617573,0.044833997982740396,-0.17499257416548206
1760107151338312700,0.953312744140625,-0.9556015197008848,0.174118841804564,-0.06771063210880383
1760107151348378600,0.963378662109375,-1.187199613788724,0.3985097809925675,-0.00956195613136515
1760107151358443800,0.97344384765625,-1.0631161380022764,0.6720522891014814,0.022224490360263735
1760107151368509700,0.983509765625,-0.7144207737535238,0.8828700454890728,0.11491883014328777
1760107151378574600,0.99357470703125,-0.14160919560492038,1.0345669198662042,0.2790722678484395
1760107151388640800,1.003640869140625,0.4499328019767999,1.02523093624413,0.43794272364936765
1760107151398705700,1.01370556640625,0.890234436777234,0.8872887387141585,0.5201444753874093
1760107151408771800,1.023771728515625,1.1276339106202125,0.7457277661651373,0.5183651176899671
1760107151418836500,1.03383642578125,1.0782850655615328,0.6389145741313695,0.4815888270217925
1760107151428902700,1.043902587890625,0.8064911546856165,0.5436895285606383,0.41747872188929463
1760107151438967800,1.0539677734375,0.510448353216052,0.5356149431765079,0.34844548114091156
1760107151449033700,1.06403369140625,0.3136597067028284,0.6201645732149481,0.2967124443594366
1760107151459098600,1.0740986328125,0.21167934165298938,0.6317936362102627,0.24410929194623604
1760107151469164500,1.08416455078125,0.18971417808234692,0.5545195501327514,0.16833797511449083
1760107151479229700,1.094229736328125,0.22071312745809554,0.47963352823555466,0.08549124000379815
1760107151489295600,1.104295654296875,0.2998112140923738,0.4463192876547575,0.09572044613854959
1760107151499360500,1.114360595703125,0.3151531601309776,0.4597223745852709,0.129036495083943
1760107151509426700,1.1244267578125,0.3545937746375799,0.4792798924922943,0.05477311686342582
1760107151519491600,1.13449169921875,0.297604643958807,0.44016690250486135,-0.0247583653525915
1760107151529557800,1.144557861328125,0.18079495856761932,0.39713878490030763,0.0809240325529594
1760107151539623700,1.154623779296875,0.11149579689204692,0.39188744024336336,0.18425067024575545
1760107151549688600,1.1646884765625,0.07228256140053271,0.3642287412062287,0.17074355668518693
1760107151559753700,1.174753662109375,0.0386602777838707,0.3146072166860103,0.14095469548525288
1760107151569819600,1.184819580078125,0.018322423154115676,0.21060995885580777,0.08533842406226322
1760107151579884800,1.194884765625,0.00509469279050827,0.07837590983957052,0.04302856969570275
1760107151589950500,1.204950439453125,0.04322013304531574,-0.03433715388774872,0.000519082837505266
1760107151600015600,1.215015625,0.15286825624406336,-0.08344809853732585,0.009259717215201817
1760107151610081800,1.225081787109375,0.25974106951057907,-0.11084259368032216,0.10048344102296977
1760107151620146700,1.235146728515625,0.35344928077757354,-0.08534721015691757,0.24512599470810964
1760107151630212900,1.245212890625,0.37923020324409007,-0.020728022991120813,0.4043500679859891
1760107151640277500,1.255277587890625,0.381557769408822,0.02781272055506706,0.42743389685563743
1760107151650343700,1.26534375,0.40637130814790723,-0.030949557276070117,0.335022593531385
1760107151660408800,1.275408935546875,0.4343248984783888,-0.22346067260056732,0.16488584363292902
1760107151670474800,1.285474853515625,0.49429859792590136,-0.4395920252263546,-0.020140267964731902
1760107151680540700,1.295540771484375,0.5713777459532022,-0.5745189665883779,-0.15149071168000808
1760107151690605600,1.30560546875,0.6500462089985609,-0.6407941042676568,-0.17829174357503652
1760107151700670700,1.315670654296875,0.7231856794893741,-0.6330141179159283,-0.16143910071253775
1760107151710736600,1.325736572265625,0.7785463321834802,-0.6212722421959043,-0.11236724596433341
1760107151720801500,1.335801513671875,0.8166103976398706,-0.6312742885112762,-0.015543085500737651
1760107151730867700,1.34586767578125,0.8276946862339973,-0.7022802541047334,0.018656513946689664
1760107151740932600,1.3559326171875,0.7915051824778317,-0.7958966954350472,0.05186077308068052
1760107151750998800,1.365998779296875,0.7487199337184429,-0.8688140476077795,0.07604325650776736
1760107151761063700,1.376063720703125,0.691906159606576,-0.904539148722589,0.028074983653868547
1760107151771129600,1.386129638671875,0.5048650001257657,-0.9272925400614738,-0.0764928086398635
1760107151781194800,1.39619482421875,0.22743512918949127,-0.924850992128253,-0.17326679155249147
1760107151791260700,1.4062607421875,-0.0402764808088541,-0.9114145874500275,-0.179224530913122
1760107151801325800,1.416325927734375,-0.2148988882213831,-0.8273685230195522,-0.1561035118382424
1760107151811391500,1.4263916015625,-0.2727390827715397,-0.7172521977871656,-0.1394311757124029
1760107151821456600,1.43645654296875,-0.3152700645089149,-0.624933687312901,-0.09641081215604208
1760107151831522800,1.446522705078125,-0.37285540751516816,-0.5879325749129056,-0.010265747886011376
1760107151841587700,1.456587646484375,-0.38782267502248285,-0.5550263306111097,0.020145076570590024
1760107151851653600,1.466653564453125,-0.3510065638005733,-0.5250096702709793,-0.007686289319442585
1760107151861718500,1.476718505859375,-0.2883136685222387,-0.5431859629526734,-0.07505953356688842
1760107151871784700,1.48678466796875,-0.2270978600591421,-0.5958014085918665,-0.14571189994970335
1760107151881849900,1.496849853515625,-0.1464274095416069,-0.6626257045865058,-0.15681489324430004
1760107151891915800,1.506915771484375,-0.12406067943274975,-0.6844608120366931,-0.058571486233081664
1760107151901980700,1.516980712890625,-0.22826515027284622,-0.6384855350643396,0.14333320638593286
1760107151912046600,1.527046630859375,-0.42220775970518587,-0.5816323057249189,0.34128486879654224
1760107151922111700,1.53711181640625,-0.5839040500491857,-0.5227396795123815,0.49892085089907046
1760107151932177700,1.547177734375,-0.6410445718973875,-0.4540884603515267,0.579079515969567
1760107151942242600,1.55724267578125,-0.5621674345374107,-0.40954584653079507,0.595796074829623
1760107151952308700,1.567308837890625,-0.4475783478051424,-0.42126930981129407,0.5556766112133861
1760107151962373600,1.57737353515625,-0.38505613291859625,-0.38761107809841633,0.4083653315093368
1760107151972439800,1.587439697265625,-0.3679828330427408,-0.22528028924316165,0.18004943742994217
1760107151982504700,1.597504638671875,-0.4123778550863266,0.006005377894639968,0.008408548312541097
1760107151992570600,1.607570556640625,-0.6579518675565719,0.21772125216573476,-0.032580081087350846
1760107152002635800,1.6176357421875,-1.0702741930633783,0.3146946027085185,0.032247597729973494
1760107152012701700,1.62770166015625,-1.4568798935115337,0.3459142090976238,0.08654100478505715
1760107152022766600,1.6377666015625,-1.714395688188076,0.36230507966727016,0.03334757659481838
1760107152032832500,1.64783251953125,-1.8464461973309516,0.41533465906530614,0.00855761966072023
1760107152042897700,1.657897705078125,-1.921222913634777,0.4627997362039983,0.11811768098352476
1760107152052963800,1.6679638671875,-1.9828677611649035,0.45273982222154735,0.25899593196539206
1760107152063028500,1.678028564453125,-1.9350959561645984,0.3747898827090859,0.3515118829742074
1760107152073094700,1.6880947265625,-1.72445881704092,0.32028833106234667,0.32952538435459133
1760107152083159800,1.698159912109375,-1.3444541222929953,0.3058710986532271,0.20545577269671483
1760107152093225700,1.708225830078125,-0.9062497520327567,0.2848448233678937,0.08890378839364275
1760107152103291000,1.718290771484375,-0.44246378127038477,0.26104294588938354,0.02464221902647987
1760107152113356500,1.7283564453125,0.010938158121705054,0.24086861125826833,0.018718820326868443
1760107152123421700,1.738421630859375,0.38695173740684985,0.24087533325999974,0.03159640381224453
1760107152133487600,1.748487548828125,0.640306905272603,0.26071429845690725,-0.037326161369588225
1760107152143552800,1.758552734375,0.735759914380312,0.2906187305942178,-0.10802587402546777
1760107152153618700,1.76861865234375,0.6664777038395404,0.2538862060025334,-0.14417250675428658
1760107152163683600,1.77868359375,0.5486264004409313,0.24161153858006,-0.25887177586276083
1760107152173749800,1.788749755859375,0.5043278245091438,0.25702567307204005,-0.36888438499234616
1760107152183814700,1.798814697265625,0.5501256990879774,0.23319033171534537,-0.4368004217464477
1760107152193880600,1.808880615234375,0.5567869105428457,0.16538170085847376,-0.46007085922937835
1760107152203945500,1.818945556640625,0.5610913297384977,0.09446165998280048,-0.41133521416559815
1760107152214011400,1.829011474609375,0.4942319624304771,0.05738105260580778,-0.35976533205658195
1760107152224076500,1.83907666015625,0.3504419156551361,0.035789106261730194,-0.3473463973252103
1760107152234142500,1.849142578125,0.1718634640932083,0.023835341356694698,-0.22909997539548202
1760107152244207600,1.85920751953125,0.0368868383705616,0.09507219309657812,-0.016544380630925296
1760107152254273500,1.8692734375,0.00897591813802719,0.2086497646987438,0.2104225830575451
1760107152264338400,1.87933837890625,0.03992985932826996,0.2869540706068277,0.41961851039696485
1760107152274404600,1.889404541015625,0.08377426175177097,0.311476517444849,0.5455456047561019
1760107152284469500,1.899469482421875,0.10421031605899334,0.2676093186676502,0.5788756639605388
1760107152294535400,1.909535400390625,0.15364859296679495,0.1812999854803085,0.525123578974232
1760107152304600600,1.9196005859375,0.20386486850976943,0.0827206610456109,0.3896318798689171
1760107152314666500,1.92966650390625,0.30548516807556153,-0.0172147541731596,0.2375602538952604
1760107152324731600,1.939731689453125,0.397160412210226,-0.0991840123295784,0.12375248113325796
1760107152334797600,1.949797607421875,0.4865829089820385,-0.15710282507389783,0.023559127364354206
1760107152344862500,1.959862548828125,0.531724365478754,-0.21725538821965454,-0.035767716413829476
1760107152354928400,1.969928466796875,0.5612602565646171,-0.2789738855078816,-0.08824508702289313
1760107152364993500,1.97999365234375,0.5792226142346859,-0.34386750570088626,-0.21077104943534358
1760107152375059700,1.990059814453125,0.5704162074446678,-0.4399795632392168,-0.37593503415621815
1760107152385124400,2.000124267578125,0.5848106435000896,-0.5193652346432208,-0.4565767335033044
1760107152395190500,2.0101904296875,0.6735048259973525,-0.5387623012915254,-0.4213423019822687
1760107152405255700,2.020255615234375,0.8225795351773499,-0.5386033113375306,-0.31563093371056017
1760107152415321600,2.030321533203125,1.0020610730588435,-0.5395464374065398,-0.19439106558589264
1760107152425386500,2.040386474609375,1.190094166186452,-0.5865750228241086,-0.10225420442200266
1760107152435452400,2.050452392578125,1.3291384797394274,-0.6360632763534784,-0.037188175387715454
1760107152445517600,2.060517578125,1.3781091391354798,-0.6957689725145697,-0.006260728907931479
1760107152455583500,2.07058349609375,1.3103934472590684,-0.7439566648393869,-0.03585135099311592
1760107152465648400,2.0806484375,1.1714800666093825,-0.7794584785923361,-0.07870378095391206
1760107152475714600,2.090714599609375,0.9826578689306974,-0.8395479133740067,-0.1446246801017318
1760107152485779500,2.100779541015625,0.7525105581730603,-0.9034756111443042,-0.1742518935997039
1760107152495845600,2.110845703125,0.5808288803875445,-0.9228419903934001,-0.16917269063927232
1760107152505910300,2.12091015625,0.41406069360673425,-0.8665645151153206,-0.08837296031941659
1760107152515976400,2.1309765625,0.29466040720045567,-0.7692281764790415,-0.018072960171382872
1760107152526041600,2.14104150390625,0.15786065770387647,-0.6972159564524889,-0.017876309654698705
1760107152536107500,2.151107421875,-0.05871697738468647,-0.6935854909956455,-0.042557664248323995
1760107152546172700,2.161172607421875,-0.299473360440135,-0.7343988551601767,-0.06401621630396694
1760107152556238300,2.17123828125,-0.4796317746698856,-0.7328644851997494,-0.06330660216331016
1760107152566303500,2.181303466796875,-0.7382435478895902,-0.7051870814621448,-0.07209135881052352
1760107152576369400,2.191369384765625,-1.0608692358583212,-0.688634882850945,-0.05406721991666127
1760107152586434600,2.2014345703125,-1.342839672833681,-0.6636395578041673,0.042237949040974485
1760107152596500500,2.21150048828125,-1.4437942019671202,-0.564805966347456,0.10832912215520628
1760107152606565400,2.2215654296875,-1.4226590594798325,-0.413373003603518,0.16335841486994176
1760107152616631600,2.231631591796875,-1.3600269544780255,-0.36294688470214603,0.23829602082390336
1760107152626696700,2.24169677734375,-1.2403572034806012,-0.4445885183393955,0.32966669252142305
1760107152636762600,2.2517626953125,-1.130633676958084,-0.6242167712152004,0.4128802516505122
1760107152646827500,2.26182763671875,-0.9839783038794994,-0.7688125814154744,0.33473453383762386
1760107152656893400,2.2718935546875,-0.8777724300891161,-0.8205389692604541,0.20268552253209055
1760107152666958600,2.28195849609375,-0.7892039197981358,-0.8452677523255347,0.17235522966552524
1760107152677024500,2.2920244140625,-0.7631260602116584,-0.8005284468889236,0.331158319318667
1760107152687089400,2.30208935546875,-0.7611363476991653,-0.6104352063611149,0.4940140453634783
1760107152697155600,2.312155517578125,-0.7642915968596935,-0.3182347595334053,0.5800199751574546
1760107152707220500,2.322220458984375,-0.7690332384288311,-0.05618745890706777,0.6089458445861935
1760107152717286700,2.33228662109375,-0.7288263157248497,0.10703268000334501,0.6204303114790469
1760107152727351600,2.3423515625,-0.5961462765067815,0.19584142879098654,0.675287398565188
1760107152737417500,2.35241748046875,-0.4459954625278711,0.24246640184372661,0.6948096259631216
1760107152747482600,2.362482666015625,-0.45830607804656026,0.2726353301361203,0.5861959603786469
1760107152757548500,2.372548583984375,-0.711587596154213,0.2730094241455197,0.40469347459618
1760107152767613400,2.382613525390625,-0.9980798944681882,0.277581846627593,0.2690540741158649
1760107152777679400,2.392679443359375,-1.019817094501853,0.3325739582702517,0.2868716530203819
1760107152787744500,2.40274462890625,-0.676098349621892,0.47350890787541866,0.4431857388693839
1760107152797810400,2.412810546875,-0.1353688399106264,0.6441150653839111,0.6206665313877165
1760107152807875300,2.422875244140625,0.39964755285084247,0.7228393502697348,0.7608465709723532
1760107152817940500,2.4329404296875,0.7717629556536674,0.7537862771973013,0.8357662028782069
1760107152828006400,2.44300634765625,0.9527449612259864,0.724998574130237,0.8026965847082436
1760107152838072600,2.453072509765625,0.8842027553975582,0.6150681268587708,0.6585513678196817
1760107152848137700,2.4631376953125,0.7145978838860988,0.44936669252663847,0.45623486126307394
1760107152858202400,2.473202392578125,0.6112813017964362,0.3430281322672963,0.3322853871198371
1760107152868268500,2.4832685546875,0.5704261443167925,0.32073154478520155,0.3319230200808495
1760107152878333700,2.493333740234375,0.5229530300021171,0.3940703372403979,0.3786682219797745
1760107152888399600,2.503399658203125,0.40817046652436256,0.5725228243350983,0.43111930737011134
1760107152898464500,2.513464599609375,0.22460195159018037,0.7340443426340818,0.4948394998695701
1760107152908530400,2.523530517578125,0.07800736878812313,0.7773340337842702,0.5126437443684786
1760107152918595600,2.533595703125,-0.01069265892803669,0.6793181884512305,0.48498555678799743
1760107152928661500,2.54366162109375,-0.07412614344060421,0.5183008202821016,0.41937019819170235
1760107152938726400,2.553726318359375,-0.10429682529866695,0.34184915161579843,0.2857483480788767
1760107152948792600,2.56379248046875,-0.11778583694696426,0.20457535486668346,0.15933343367017805
1760107152958857500,2.573857421875,-0.10000234297513962,0.13182020751833914,0.11934163328791036
1760107152968923600,2.583923583984375,0.0046200610160827636,0.12259762114286422,0.17767372127454728
1760107152978988300,2.59398828125,0.15156769503951073,0.13308891227990388,0.2500084147211164
1760107152989054500,2.604054443359375,0.26914602671563626,0.11688508871495723,0.17320271334033457
1760107152999119600,2.61411962890625,0.40918811913430686,0.03691840255260467,0.10571896705627441
1760107153009185500,2.624185546875,0.49423546956181524,-0.09011047903597354,0.0753486709728837
1760107153019250700,2.634250732421875,0.5620347480684519,-0.19837270083427427,0.012146985922195017
1760107153029316400,2.64431640625,0.6494394752770662,-0.24609540599584578,-0.03620380627615377
1760107153039381500,2.654381591796875,0.7375064657866954,-0.23143413569778204,-0.040549790458055214
1760107153049447400,2.664447509765625,0.8036351807326078,-0.2402951952844858,0.010890848381258547
1760107153059512600,2.6745126953125,0.8702841201603412,-0.26893559883534907,0.10927180069964379
1760107153069578500,2.68457861328125,0.9415659800857304,-0.3049550067216158,0.15116974523048848
1760107153079643400,2.694643310546875,1.0304016168802976,-0.3645350306764245,0.1405742356671486
1760107153089709600,2.70470947265625,1.090289976131916,-0.4289183632597327,0.15195214604614302
1760107153099774700,2.714774658203125,1.18038058142364,-0.4910433955222368,0.11542622254299931
1760107153109840600,2.724840576171875,1.2268611775696276,-0.561672636757791,0.030192427898989987
1760107153119905500,2.734905517578125,1.0900111591905355,-0.6414274337351322,-0.0110645335808862
1760107153129971500,2.744971435546875,0.841039320975542,-0.636709173041582,-0.05394542473447509
1760107153140036600,2.75503662109375,0.6421610087066888,-0.5776815222725272,-0.059459329317742955
1760107153150102500,2.7651025390625,0.5808861635327339,-0.485664332832396,-0.014634731634298804
1760107153160167400,2.77516748046875,0.638947307357192,-0.42237113357335326,0.09397297228355891
1760107153170233600,2.785233642578125,0.6900701763510704,-0.4542135480359196,0.17604789190469308
1760107153180298500,2.795298583984375,0.5771387936979532,-0.5841527641132473,0.11394656017818487
1760107153190364200,2.8053642578125,0.23857845449447632,-0.7226368134349584,-0.054953565163980235
1760107153200429300,2.81542919921875,-0.23810908341705797,-0.7711337178394198,-0.24391154088443143
1760107153210495200,2.8254951171875,-0.8628659528583288,-0.7425853764861822,-0.4358599260259419
1760107153220560100,2.83556005859375,-1.52066993637681,-0.6728226889520883,-0.5040630726257339
1760107153230626000,2.8456259765625,-1.9960306095987557,-0.5051373873263597,-0.47291634880974887
1760107153240691200,2.855691162109375,-2.124985490813851,-0.29146102663725615,-0.38536958278194067
1760107153250757000,2.865757080078125,-1.932192635938525,-0.14262451012730598,-0.2709393764058128
1760107153260822000,2.875822021484375,-1.590592782908678,-0.09291647636741399,-0.14459458635756745
1760107153270888200,2.88588818359375,-1.3175532558858394,-0.10719546934962272,0.05484391251073684
1760107153280953000,2.895953125,-1.1452969930827617,-0.1302577805072069,0.15711046039108187
1760107153291019300,2.906019287109375,-1.0431477012068033,-0.13425503344982861,0.15945501422323285
1760107153301084200,2.916084228515625,-0.9309563232660293,-0.12574527151882647,0.12060501342038624
1760107153311150000,2.926150146484375,-0.773108525043726,-0.10504238296896219,0.13599343808237463
1760107153321215200,2.93621533203125,-0.6232026257365941,-0.08221709543764591,0.08151713047474622
1760107153331281200,2.94628125,-0.5353320345818996,-0.05193330859392881,-0.12751104821548798
1760107153341346000,2.956345947265625,-0.5017167652279139,-0.02991495353132486,-0.49653432108871637
1760107153351412000,2.966411865234375,-0.4549351403087377,-0.05772650504261255,-0.8795584367230534
1760107153361477000,2.97647705078125,-0.46583062833249567,-0.12457476643472909,-0.9999279334876686
1760107153371542300,2.986542236328125,-0.36252222954928875,-0.15169219820201396,-1.0067015923410654
1760107153381608200,2.996608154296875,-0.20617139188647268,-0.033979134230315684,-0.971426061624661
1760107153391674000,3.006674072265625,-0.128000941491127,0.2747767260789871,-0.8483252402000129
1760107153401739000,3.016739013671875,-0.15556465572118758,0.6134285429581999,-0.5701579948998987
1760107153411804200,3.02680419921875,-0.3569242634117603,0.8848398842573165,-0.13264468477689662
1760107153421870300,3.036870361328125,-0.6221446411162614,1.0199676088884473,0.346156529953517
1760107153431935000,3.04693505859375,-0.89137951515913,1.064640278829634,0.7680341443888843
1760107153442001200,3.057001220703125,-1.0894733990520238,1.1192492363736033,0.9494633092068135
1760107153452066300,3.06706640625,-1.16074239949584,1.1953043020501732,0.9161476073212921
1760107153462132200,3.07713232421875,-1.1630524300038814,1.224546178625524,0.890769566567242
1760107153472197000,3.087197021484375,-1.0925006379187105,1.1875596792727707,0.918661928229779
1760107153482263000,3.097262939453125,-0.9414385543137789,1.0798112522155046,0.8368762830119579
1760107153492328200,3.107328125,-0.6235667828738689,0.9103753075301647,0.5694731179082766
1760107153502394000,3.11739404296875,-0.18205752584934234,0.6940148223236203,0.20953776304703203
1760107153512459000,3.127458984375,0.35115386331677434,0.5301265748932957,-0.0631536766239209
1760107153522525200,3.137525146484375,0.8634241712629794,0.35945875032544133,-0.1780992532102391
1760107153532590000,3.147590087890625,1.2986387120574712,0.14363281038701534,-0.1987942689809017
1760107153542656300,3.15765625,1.5183961462259292,-0.005911854392290115,-0.19931993682282045
1760107153552721000,3.167720947265625,1.3764181173086165,-0.09291355375796556,-0.20017918400065973
1760107153562787000,3.177787109375,0.7861468703150749,-0.08886106349676846,-0.20805315051246434
1760107153572852200,3.187852294921875,0.0072796356141567225,0.03726911568641662,-0.32833449406959114
1760107153582918100,3.197918212890625,-0.6090618721812963,0.1506920812487602,-0.4577683909732848
1760107153592983300,3.2079833984375,-1.0105138441056012,0.1726329871609807,-0.5438911520799622
1760107153603049000,3.218049072265625,-1.1541472390145062,0.1174701951265335,-0.5866902467016131
1760107153613114000,3.228114013671875,-1.0334884769797326,0.06899637933671474,-0.5539292926220223
1760107153623180000,3.238179931640625,-0.624549364170432,0.016047756220400333,-0.48155156375132496
1760107153633245200,3.2482451171875,-0.04536708194613456,-0.048963060611486434,-0.33570257515218105
1760107153643311000,3.25831103515625,0.5255798713743687,-0.1249710722759366,-0.2029696367030963
1760107153653376000,3.2683759765625,1.0353642077237366,-0.19452713132202623,-0.08117947775190695
1760107153663442200,3.278442138671875,1.4042360985606908,-0.2117828020274639,0.11273033452252856
1760107153673507300,3.28850732421875,1.5901345177471637,-0.22610534189045428,0.297766154663451
1760107153683573200,3.2985732421875,1.5782681388646362,-0.26880028201788664,0.3582110152866691
1760107153693638100,3.30863818359375,1.3791414047926664,-0.33978082090914247,0.309601919212006
1760107153703704000,3.3187041015625,1.1194389137268066,-0.46491380574852226,0.13484302593823522
1760107153713769200,3.328769287109375,0.8878682921677827,-0.6142801913514733,-0.1336262066275347
1760107153723835100,3.338835205078125,0.7099678859978914,-0.7607645917773246,-0.3645076312128454
1760107153733900000,3.348900146484375,0.6292980200022459,-0.859868524608016,-0.5589849320437759
1760107153743966200,3.35896630859375,0.596794511282444,-0.9214113730683923,-0.6969897464811802
1760107153754031000,3.369031005859375,0.6025795244246721,-1.024149278487265,-0.7836012774854898
1760107153764097300,3.37909716796875,0.6165612880259752,-1.0640993038207291,-0.7228205725040286
1760107153774162200,3.389162109375,0.6212941617667674,-0.9942433850452304,-0.5626661047745496
1760107153784227000,3.39922705078125,0.48708092163205147,-0.9248884015291928,-0.37568664888571945
1760107153794293200,3.409293212890625,0.24031448450684545,-0.8236328436225652,-0.22161610417980698
1760107153804358100,3.419358154296875,-0.07019932538568974,-0.7145812250122427,-0.16172445699255913
1760107153814424000,3.429424072265625,-0.36271921342611313,-0.6875862505808472,-0.16150719751268625
1760107153824489200,3.4394892578125,-0.6342430751889944,-0.7678817303061485,-0.15647060985127462
1760107153834555100,3.44955517578125,-0.7701432454973459,-0.8428083764746784,-0.19338647338692097
1760107153844620300,3.459620361328125,-0.8059089708834886,-0.8833627974420786,-0.2974754828874953
1760107153854686000,3.46968603515625,-0.7424637959331274,-0.8881064848378301,-0.39738654911629856
1760107153864751000,3.479751220703125,-0.5864589952290058,-0.8730492009595036,-0.39002153677362944
1760107153874817000,3.489817138671875,-0.4138321455478668,-0.8387801438719034,-0.2767862575368024
1760107153884882200,3.499882080078125,-0.46210254772007464,-0.7842828300088643,-0.08784403194133192
1760107153894948400,3.5099482421875,-0.6357371131390332,-0.6563581686243415,0.03771907196060056
1760107153905013000,3.520012939453125,-0.8617103530824184,-0.49928340060114856,0.10384729143287987
1760107153915079200,3.5300791015625,-1.0180477467417717,-0.32798896856755017,0.1306166221485473
1760107153925144300,3.540144287109375,-1.0990262402951716,-0.15436697036921976,0.11766561723393387
1760107153935210200,3.550210205078125,-1.1234773754626513,-0.04166004412174225,0.10436081217927858
1760107153945275100,3.560275146484375,-1.2116828976601361,-0.0984670962318778,0.08443836995000019
1760107153955341000,3.570341064453125,-1.275524378451705,-0.2811123588413,0.0637890427848557
1760107153965406200,3.58040625,-1.1256231553196907,-0.3973249551221728,0.07102435976667329
1760107153975472000,3.59047216796875,-0.7724199582576752,-0.4062725239485502,0.19869575877618043
1760107153985537000,3.600537109375,-0.3068167089402675,-0.39062838009297846,0.5082352072112262
1760107153995603200,3.610603271484375,0.17143910120129585,-0.4465294232740998,0.9041838324788958
1760107154005668000,3.620668212890625,0.5627034411102533,-0.5588941119551658,1.1596637374136596
1760107154015734300,3.630734375,0.6673106475323438,-0.6206684310838579,1.12507881930992
1760107154025799000,3.640798828125,0.5283931752294302,-0.5757806570872664,0.8670227072115987
1760107154035865000,3.650864990234375,0.09684007955193519,-0.42264381303489207,0.4995624367382377
1760107154045930200,3.66093017578125,-0.5599515120536088,-0.2241612220853567,0.1916043757431209
1760107154055996200,3.67099609375,-1.1641431478500366,-0.023218086241185664,0.03293498633909039
1760107154066061000,3.68106103515625,-1.5366303065747022,0.202629189234972,0.00031995723594445733
1760107154076127000,3.691126953125,-1.5653437753617763,0.4192161766737699,-0.0773108561576344
1760107154086192000,3.701192138671875,-1.3230921853125095,0.5590528096482157,-0.19954864927846938
1760107154096258000,3.711258056640625,-0.9650403791755437,0.6206009188055992,-0.1849723173175007
1760107154106323200,3.7213232421875,-0.5697486834466458,0.6215048819079995,0.022819433179264888
1760107154116389000,3.73138916015625,-0.22109598929584026,0.7036880750760436,0.30539778205305335
1760107154126454000,3.7414541015625,0.10881050333082676,0.8854705833762884,0.5100973112886771
1760107154136519200,3.751519287109375,0.38120530270934105,1.0313251614660024,0.6572946457568556
1760107154146585300,3.76158544921875,0.5880705220788717,1.072562888522446,0.7937185476783662
1760107154156650000,3.77164990234375,0.7167103459954262,1.011909390117228,0.8393982027050108
1760107154166716200,3.781716064453125,0.7867693861275911,0.8628893337339162,0.734304674070701
1760107154176781000,3.791781005859375,0.830923585152626,0.7080036001875997,0.5232317738782614
1760107154186847000,3.801846923828125,0.8718407019525766,0.5851219014063477,0.26753607076834884
1760107154196912000,3.811912109375,0.8064180894494056,0.4618243153005838,0.015945455756550653
1760107154206978000,3.82197802734375,0.5946896479576825,0.3826113701149821,-0.24066074066124854
1760107154217043000,3.83204296875,0.339307942700386,0.34486148517429827,-0.4091887401888147
1760107154227108900,3.84210888671875,0.182781748470664,0.3925242768421769,-0.3939235491808504
1760107154237174000,3.852174072265625,0.12531915506124497,0.45151188786178825,-0.1964468473382294
1760107154247240200,3.862240234375,0.11489654524624347,0.4936944945529103,0.05993866010017227
1760107154257304800,3.872304931640625,0.10741641862392425,0.5318056140214205,0.2853910590738058
1760107154267371000,3.88237109375,0.02483165891766548,0.5683908390969038,0.4896885103145614
1760107154277436000,3.892435791015625,-0.06380874756574631,0.6019242753863334,0.5736758668277412
1760107154287502000,3.902502197265625,-0.11173369730114936,0.5381126052111387,0.4624421549379825
1760107154297567200,3.912567138671875,-0.07988309953212737,0.3658893678948283,0.2489909813068807
1760107154307633000,3.9226328125,0.026959903118014335,0.15635054540187118,-0.013048738801199942
1760107154317698000,3.932697998046875,0.21005437079966066,-0.04106558535993099,-0.11305393132055178
1760107154327764000,3.942763916015625,0.31250293788313865,-0.13593144222944975,-0.03839343897465151
1760107154337829000,3.9528291015625,0.36354105120301244,-0.0875941123008728,0.1289805910450872
1760107154347894800,3.962894775390625,0.4076420587360859,0.018886194516718385,0.23463674939768386
1760107154357960000,3.9729599609375,0.5423737697869538,0.09478694641441106,0.24958922119466587
1760107154368026000,3.983026123046875,0.7054115378677844,0.1266883975878358,0.27229323870018124
1760107154378091000,3.993091064453125,0.8175210827440023,0.13628712379932403,0.33510314795430746
1760107154388157200,4.0031572265625,0.8534878836601972,0.07773322802186011,0.3373086951745674
1760107154398222000,4.01322216796875,0.7855126640647649,-0.03377776643931865,0.280069535257481
1760107154408288000,4.0232880859375,0.6775315972954035,-0.11658756707310676,0.14790767469462007
1760107154418353200,4.033353271484375,0.6338087754249573,-0.19744827946573495,-0.08554097916334867
1760107154428419000,4.043419189453125,0.6589993307828903,-0.3115899146914482,-0.28043168310075994
1760107154438484000,4.05348388671875,0.7378606860518455,-0.42648792124241586,-0.35462526575438674
1760107154448550000,4.0635498046875,0.8808587056666612,-0.4807517186105251,-0.25830511842332776
1760107154458615000,4.073614990234375,1.0615461122065781,-0.4164116406470537,-0.08337784631270914
1760107154468680000,4.083679931640625,1.1900228545159102,-0.30378888555169103,0.07620082625623326
1760107154478745900,4.093745849609375,1.213471534642577,-0.23013532805889844,0.21215583659093826
1760107154488811000,4.10381103515625,1.1749006887078284,-0.18949761272221802,0.3112688295109197
1760107154498877000,4.113876953125,0.931818493053317,-0.25488106225878,0.3279899914808571
1760107154508942000,4.123942138671875,0.6250152281165122,-0.2619371182501316,0.2293242674043402
1760107154519008000,4.134008056640625,0.20108780501186846,-0.3025923692435026,0.10514908561329357
1760107154529073000,4.144072998046875,-0.2503501408308744,-0.3593322013363242,-0.03605257950350642
1760107154539139000,4.15413916015625,-0.7130605913162231,-0.37763738109469414,-0.1724750201202929
1760107154549204200,4.164204345703125,-1.1146703841507435,-0.3859668180227279,-0.25698879339406266
1760107154559270000,4.174269775390625,-1.332237030276656,-0.3733692022562027,-0.25651218885825944
1760107154569335000,4.1843349609375,-1.3932313049435614,-0.36569618341028687,-0.25509930811934173
1760107154579401000,4.19440087890625,-1.3821207128643989,-0.39915217054933305,-0.2737188875891268
1760107154589466000,4.204466064453125,-1.3173083412140607,-0.4471861336171627,-0.21550867241648955
1760107154599532000,4.214531982421875,-1.2102455583333969,-0.4743310379132628,-0.04777827127370983
1760107154609597000,4.224596923828125,-1.14149526271224,-0.47729894780814647,0.22302830906528978
1760107154619663000,4.2346630859375,-1.0898381407111883,-0.39896687711030243,0.5348371637370437
1760107154629728000,4.24472802734375,-0.9894149419754743,-0.21539427052289245,0.7971099436823278
1760107154639794200,4.254794189453125,-0.9613836102336645,-0.15771131236106156,0.9487247657991945
1760107154649859000,4.264859130859375,-0.9247697435855865,-0.20875059472471474,0.9184721047461032
1760107154659925000,4.274925048828125,-0.8036603151738643,-0.296289761967957,0.7109006368033588
1760107154669990100,4.284990234375,-0.5420686493605374,-0.38502018482238054,0.394672358254157
1760107154680056000,4.29505615234375,-0.31128654783070087,-0.4129410419270396,0.10509542833045124
1760107154690121000,4.305120849609375,-0.10397241564989089,-0.40588878532797096,-0.08750994114875793
1760107154700187000,4.315186767578125,0.018707623079419134,-0.3663423723593354,-0.16660729713067413
1760107154710252000,4.325251953125,0.04139934735894203,-0.2369669276446104,-0.14957513298280536
1760107154720317200,4.335317138671875,-0.046137481796741486,-0.05315817421376705,0.018432130606286228
1760107154730382800,4.3453828125,-0.2655775205790996,0.17583733616024255,0.3063731298912316
1760107154740448000,4.355447998046875,-0.5950713407516479,0.4017360495626926,0.6869199686918407
1760107154750514000,4.365513916015625,-0.9993740259319543,0.5348299302786589,1.0087290795806794
1760107154760579000,4.3755791015625,-1.4235691600620746,0.6158867497652769,1.1412948447693139
1760107154770645000,4.38564501953125,-1.7126473832160234,0.6730582512736321,1.196961567737907
1760107154780710000,4.3957099609375,-1.7595108411997555,0.6974979882642627,1.148834519559145
1760107154790776000,4.405776123046875,-1.5346230584055185,0.6905342867314815,0.9654190762948244
1760107154800841200,4.41584130859375,-1.152148174151778,0.647942222456634,0.7324634301181883
1760107154810907100,4.4259072265625,-0.6975894659399986,0.5675181479156017,0.5329554051110521
1760107154820972000,4.435971923828125,-0.20877602142691612,0.5055903917908668,0.48817485434859986
1760107154831038000,4.446037841796875,0.19103753564059733,0.5047887200191616,0.500790078837052
1760107154841103000,4.45610302734375,0.48182431627809996,0.5583978528708219,0.5063079654756933
1760107154851169000,4.4661689453125,0.6961725848793983,0.6063318626955151,0.4938300305660814
1760107154861234000,4.47623388671875,0.8478232820272446,0.5974447918847203,0.37881782305091616
1760107154871300000,4.486300048828125,0.8603110076785087,0.5023582780018448,0.10806965836826711
1760107154881365000,4.496364990234375,0.7213689854562282,0.3098457013726234,-0.2439910358614288
1760107154891431200,4.50643115234375,0.44346097561419007,0.0854959709778428,-0.5496243619697169
1760107154901495800,4.516495849609375,0.0478793570280075,-0.09013882834762334,-0.7474814779646695
1760107154911562000,4.52656201171875,-0.387464363104105,-0.186968678766489,-0.8659685950487852
1760107154921627100,4.536627197265625,-0.6982792017698287,-0.15007979456931353,-0.8721461146399379
1760107154931693000,4.546693115234375,-0.7736918778896331,-0.023008827404677867,-0.8025238584898412
1760107154941758000,4.556758056640625,-0.6394909127146006,0.1461918472200632,-0.5743132148832082
1760107154951824000,4.566823974609375,-0.37668227232694623,0.218032217811048,-0.282902402329538
1760107154961889000,4.576888916015625,-0.09028174394965172,0.2151183761909604,-0.10580101931653917
1760107154971955000,4.586954833984375,0.14875088405311107,0.16019173099994657,-0.09147566644195466
1760107154982019800,4.597019775390625,0.34897184310257434,0.10621668744534253,-0.0725511126762256
1760107154992085000,4.6070849609375,0.47869361703693863,0.06413637208491564,-0.04645031973873265
1760107155002151000,4.61715087890625,0.5172644629716873,0.02614829447418451,-0.1100851081102155
1760107155012216000,4.627216064453125,0.49873278098106383,-0.038949031597375866,-0.20378044162932782
1760107155022282200,4.6372822265625,0.5019488204181194,-0.1366965813830495,-0.2772797949410975
1760107155032347000,4.647346923828125,0.5745955389559269,-0.19543401703387497,-0.3256664073714986
1760107155042413000,4.6574130859375,0.6438783340185881,-0.24136019416749477,-0.3629155762484297
1760107155052478000,4.66747802734375,0.7441215000122785,-0.31108781038820743,-0.38036432184055446
1760107155062544100,4.677544189453125,0.8957125759273767,-0.3667737495139241,-0.39013482442237435
1760107155072609000,4.687609130859375,1.0644961941838265,-0.40712037294954057,-0.3951934229861945
1760107155082675000,4.697675048828125,1.174321427515149,-0.42826720587462186,-0.37357502702660855
1760107155092740000,4.707739990234375,1.1804343574374914,-0.46379766120016575,-0.3991683910317719
1760107155102806000,4.717805908203125,1.0680465801417827,-0.5269064438030123,-0.4374968430453911
1760107155112871000,4.727870849609375,0.8500432961642742,-0.5682409092321992,-0.4009143213836476
1760107155122937000,4.73793701171875,0.5680120689123869,-0.5315066310748457,-0.32785131366252895
1760107155133002000,4.748001953125,0.35826340306103227,-0.4720715685486793,-0.27222077625216917
1760107155143068200,4.758068115234375,0.3097287969946861,-0.43561698411554095,-0.3138976071119308
1760107155153132800,4.7681328125,0.3362415408670902,-0.4701473224878311,-0.36344522614572194
1760107155163199000,4.778198974609375,0.33937750080525875,-0.5408773937493563,-0.3375025007136166
1760107155173264100,4.78826416015625,0.3055120560824871,-0.5715946035742759,-0.24640958651155231
1760107155183330000,4.798330078125,0.3197562700122595,-0.5736977133333683,-0.17262531531117856
1760107155193395700,4.808395751953125,0.265528420740366,-0.6246490251526237,-0.15859373948508873
1760107155203460400,4.81846044921875,0.1634451798379421,-0.6371306133240461,-0.16804898383896796
1760107155213526500,4.828526611328125,0.05604980400204658,-0.6218287070348858,-0.15980996514074503
1760107155223591700,4.838591796875,-0.022732640811800955,-0.5890981115609407,-0.1591635021970607
1760107155233657600,4.84865771484375,-0.12346154449582099,-0.5762251859843731,-0.17309287802400067
1760107155243722500,4.858722412109375,-0.28199615593850613,-0.56029433414191,-0.15810487825591116
1760107155253788400,4.868788330078125,-0.4817401451259851,-0.4751216037690639,-0.05703818485173397
1760107155263853600,4.878853515625,-0.6770347536891699,-0.35701223395615816,0.058244080909620966
1760107155273919500,4.88891943359375,-0.9298930779486894,-0.26703765625953674,0.15279351050741968
1760107155283984400,4.898984375,-1.1869395015478132,-0.1800853489935398,0.23918511515073476
1760107155294050600,4.909050537109375,-1.4997937370866536,-0.08401713059693575,0.23011706174984572
1760107155304115500,4.919115478515625,-1.8009212944746016,-0.08850713549256324,0.17101738692419602
1760107155314181600,4.929181640625,-1.8921710066735744,-0.16647972522825003,0.1760218989469111
1760107155324246500,4.93924658203125,-1.7368752310216427,-0.2131052828028798,0.2501818715918809
1760107155334312400,4.9493125,-1.4106670083910227,-0.20377339083403348,0.43780645698383447
1760107155344377600,4.959377685546875,-0.9882803849875926,-0.18432810112982986,0.7276449239205569
1760107155354443500,4.969443603515625,-0.5602414349108934,-0.15207330647408962,0.9773515061508864
1760107155364508700,4.9795087890625,-0.20102643021345137,-0.056200610649585724,1.0296120739378034
1760107155374574300,4.98957421875,-0.061147419402003286,-0.045781507965922355,0.8924937600113451
1760107155384639500,4.999639404296875,-0.1281792206674814,-0.04141191457957029,0.6257978298615664
1760107155394705400,5.009705322265625,-0.40852644035518165,-0.035132980440557,0.3043110097296536
1760107155404770600,5.0197705078125,-0.768306093198061,0.021403730295598507,0.10267302348911761
1760107155414836500,5.02983642578125,-1.122903374966979,0.09530892446190119,-0.015578154530830215
1760107155424901400,5.0399013671875,-1.4583499660640955,0.1997594790175557,-0.19559735436942427
1760107155434966500,5.049966552734375,-1.7140730321049689,0.251233061145246,-0.3205400773337111
1760107155445032700,5.06003271484375,-1.7309376576662063,0.3142559190303087,-0.2616556709602475
1760107155455097300,5.070097412109375,-1.4668705416500567,0.4677177572533488,-0.022331466999230904
1760107155465163500,5.08016357421875,-1.004326095381379,0.6296770824477076,0.28456701107351107
1760107155475228700,5.090228759765625,-0.37770518563389777,0.718016167896986,0.534772793263942
1760107155485294600,5.100294677734375,0.3637859658747911,0.6514084372624754,0.6631804158598185
1760107155495359500,5.110359375,1.0574421840190886,0.47523646232038735,0.5809223308246583
1760107155505425400,5.12042529296875,1.4809890833735466,0.2634054372370243,0.3404323801530525
1760107155515490600,5.130490478515625,1.526367855757475,0.03753185827583074,0.10794681743988767
1760107155525556500,5.140556396484375,1.2668752080500125,-0.12097791098654269,-0.06401292836833745
1760107155535621400,5.150621337890625,0.8788625634133815,-0.1405365979373455,-0.1730793426889926
1760107155545687600,5.1606875,0.5240320574104785,0.01160802020728588,-0.20968586628083138
1760107155555752400,5.17075244140625,0.33567747724354263,0.23449732266068457,-0.17847047940911723
1760107155565818600,5.180818603515625,0.343797070813179,0.4100412288323044,-0.02692733428897336
1760107155575883500,5.190883544921875,0.5018173029929399,0.48563159960657354,0.14117091378550975
1760107155585949400,5.200949462890625,0.6604226415842771,0.5231877155408263,0.24021453126370906
1760107155596014600,5.2110146484375,0.6638625529050827,0.5126294966474175,0.25987413957202804
1760107155606080500,5.22108056640625,0.4801292027980089,0.4858709613204002,0.2637111056527123
1760107155616145700,5.231145751953125,0.04991933842301369,0.44578123525530094,0.22459782340433448
1760107155626211300,5.24121142578125,-0.4160281942874193,0.35054800637811423,0.12850023278277367
1760107155636276500,5.2512763671875,-0.7330459792464971,0.25202567282766103,0.07586622857358306
1760107155646341600,5.261341552734375,-0.8047346664071082,0.2663105110287666,0.05953249501865357
1760107155656407600,5.271407470703125,-0.6197089384019374,0.3501113685265183,0.057465735214576125
1760107155666472400,5.281472412109375,-0.17800620463192462,0.36925913658887144,0.1439562153887935
1760107155676538400,5.291538330078125,0.3173573921769857,0.2757090384930372,0.2728712943164632
1760107155686603500,5.301603515625,0.7195394319415092,0.09776537770330905,0.2851083879412152
1760107155696669700,5.311669677734375,0.9107967478126286,-0.07564560809284449,0.16136132276859133
1760107155706734300,5.321734375,0.9465198031008243,-0.19707360093444584,0.04783469590237364
1760107155716800500,5.331800537109375,0.8461854516923427,-0.20717823084145784,0.03545992910629138
1760107155726865400,5.341865478515625,0.6752735892355441,-0.11457593498975038,0.09394554542051628
1760107155736931600,5.351931640625,0.46706104691028594,-0.003492226029932499,0.1699975240908563
1760107155746996500,5.36199658203125,0.3292950827300548,0.036139234873652455,0.19006353950928895
1760107155757062400,5.3720625,0.40059740092158314,-0.011652736131846904,0.05089015621654689
1760107155767127600,5.38212744140625,0.5614391202628612,-0.13526450275331736,-0.15044817122397944
1760107155777193500,5.392193359375,0.7306798346370458,-0.2992550415143371,-0.3285718099568039
1760107155787258600,5.402258544921875,0.892923821991682,-0.4039838284894824,-0.36867519922107456
1760107155797324500,5.412324462890625,1.0147165564924479,-0.4199290011182427,-0.2838276822146028
1760107155807389400,5.422389404296875,1.1339748040795326,-0.35008652634620663,-0.21022181805474682
1760107155817455600,5.43245556640625,1.2058604751169681,-0.31638094836026426,-0.14694374329959972
1760107155827520500,5.4425205078125,1.2051233930140732,-0.3224555920988321,-0.07459175165835767
1760107155837586400,5.45258642578125,1.1244184557050465,-0.3503124440565705,-0.04674085451737046
1760107155847651600,5.462651611328125,0.9204729231745004,-0.4154010022997856,-0.1643278261576779
1760107155857716500,5.472716552734375,0.6746960816085338,-0.5124146848529577,-0.29437614689897745
1760107155867782700,5.48278271484375,0.4995715698927641,-0.5772270565032959,-0.31293701845146715
1760107155877847600,5.49284765625,0.3609147943526506,-0.5592477476984262,-0.2606765785287134
1760107155887913500,5.50291357421875,0.1527753172636032,-0.4990703423723578,-0.17733396792616693
1760107155897978600,5.512978515625,-0.11056173091232777,-0.40126697074621914,-0.11570383390798233
1760107155908044500,5.52304443359375,-0.46847558988332744,-0.3459291144058108,-0.17891256062081082
1760107155918109400,5.533109375,-0.9263666573882102,-0.4239414516299963,-0.3790658429952338
1760107155928175400,5.54317529296875,-1.2958031963706016,-0.5049196529224514,-0.5578376251721754
1760107155938240500,5.553240478515625,-1.587817472976446,-0.4797910568848252,-0.5480708854500204
1760107155948306700,5.563306640625,-1.7239064438551663,-0.44305970133692024,-0.3069829323526472
1760107155958371300,5.573371337890625,-1.6323825908899305,-0.35908407179415225,0.047015150547260416
1760107155968437500,5.5834375,-1.366003106278181,-0.2692904036223888,0.3503141976222396
1760107155978502400,5.59350244140625,-1.0110498506784438,-0.2627346983686089,0.549968901091069
1760107155988568600,5.603568603515625,-0.7528975116640328,-0.33009704676270485,0.628638533180207
1760107155998633700,5.6136337890625,-0.6584294219404458,-0.4241305444613099,0.6284777165953069
1760107156008699400,5.623699462890625,-0.6844856542170047,-0.45838031232655047,0.6268099295135587
1760107156018764500,5.6337646484375,-0.7017261273533105,-0.30118162566274403,0.613324571127072
1760107156028830500,5.64383056640625,-0.5667617765903472,-0.006283025792241096,0.590158361203596
1760107156038895600,5.6538955078125,-0.3661293141305446,0.31623715597540136,0.5173015070464462
1760107156048960500,5.66396044921875,-0.2355816107660532,0.4173255406215787,0.34788167324569075
1760107156059026400,5.6740263671875,-0.3197966020226478,0.32037790904194113,0.28578416831092907
1760107156069091600,5.684091552734375,-0.539238394370675,0.22929712366908786,0.27003048139996827
1760107156079157500,5.694157470703125,-0.8814449811220169,0.35417467244267464,0.2311204118398018
1760107156089222400,5.704222412109375,-1.2763286805719136,0.5650657863274217,0.10391130571295507
1760107156099288600,5.71428857421875,-1.6138853956907986,0.7032987834975123,0.10139259175714105
1760107156109353500,5.724353515625,-1.9379530991613865,0.7536226110681891,0.19357675352832301
1760107156119419600,5.734419677734375,-2.1632845340698954,0.6755901078388095,0.3357425418363884
1760107156129484300,5.744484375,-2.146711584931612,0.580119270813465,0.4129572258768603
1760107156139550500,5.754550537109375,-1.8831997647106646,0.5941562717333436,0.348707310414873
1760107156149615600,5.76461572265625,-1.3432804023385048,0.6604466069817543,0.20120459979195146
1760107156159681500,5.774681640625,-0.6461813502639532,0.7053682832479476,0.06867840856187976
1760107156169746400,5.784746337890625,0.0480319172412157,0.6757613727524876,-0.0019508874726016073
1760107156179812400,5.794812255859375,0.5025841957122087,0.606214666056633,-0.053339933121995996
1760107156189877200,5.804877197265625,0.7146475682467222,0.5816948495671153,-0.050093452880904075
1760107156199943400,5.814943359375,0.7589823845356702,0.6387900709688663,-0.04265469488201197
1760107156210008300,5.82500830078125,0.7044909158915281,0.6854951235204935,-0.046158204924361776
1760107156220073200,5.8350732421875,0.6473351964741945,0.6829141671165824,-0.05376439647860825
1760107156230139100,5.84513916015625,0.5646645120501518,0.6396636389330029,-0.14890798344411887
1760107156240204300,5.855204345703125,0.4733183537393808,0.5546215492025017,-0.32985487203728403
1760107156250270500,5.8652705078125,0.38553018017113205,0.4060287783205509,-0.571962669701688
1760107156260335000,5.875335205078125,0.32621523689329623,0.1934749919205904,-0.8161050784662366
1760107156270401300,5.8854013671875,0.29047464594841,0.003158464030921459,-0.9508688651558012
1760107156280466400,5.895466552734375,0.1879588588476181,-0.12789718885570764,-0.9699750590987503
1760107156290532400,5.905532470703125,0.022135843962430953,-0.17082506095618008,-0.9164414026360959
1760107156300597200,5.91559716796875,-0.06801847421526909,-0.09940057768970727,-0.7487848887134343
1760107156310663200,5.9256630859375,0.03429506831169128,0.056523851254582404,-0.4467493496350944
1760107156320728300,5.935728271484375,0.2473492054492235,0.2225701535016298,-0.13419398744497446
1760107156330794200,5.945794189453125,0.5152653981089592,0.310571969820559,0.10737249728380702
1760107156340859400,5.955859375,0.6797814220488071,0.27841449805945157,0.23365924613503739
1760107156350925300,5.96592529296875,0.766371910265088,0.1828133126527071,0.2521655927550048
1760107156360990200,5.975990234375,0.8243179032772779,0.01633417194634676,0.1866812949261628
1760107156371056400,5.986056396484375,0.7830746232628822,-0.10477467194348573,0.12854038213007152
1760107156381121300,5.996121337890625,0.7175427051663398,-0.1809104016408324,0.09735697956550866
1760107156391186200,6.006186279296875,0.6061527067363262,-0.2180637819930911,0.07258976418618113
1760107156401252400,6.01625244140625,0.46121641253530976,-0.2632134217962622,0.015938430077431256
1760107156411317200,6.026317138671875,0.3501835569798946,-0.3417740405529737,-0.08289012672784737
1760107156421383400,6.036383544921875,0.35609307328462597,-0.4356321816846728,-0.14558040992398746
1760107156431448300,6.0464482421875,0.4346896401375532,-0.4975616913750767,-0.16274844801174476
1760107156441514200,6.05651416015625,0.5358364769726991,-0.5520581284552812,-0.17679072789493946
1760107156451579400,6.066579345703125,0.5993892039507627,-0.5850242862507701,-0.14980049357074313
1760107156461645300,6.076645263671875,0.6588701514452695,-0.6265896378263831,-0.1382915772232227
1760107156471710200,6.086710205078125,0.7126596092998981,-0.6804281955197453,-0.164646701114811
1760107156481776000,6.096776123046875,0.6868389393448829,-0.706743955515325,-0.19313359460439533
1760107156491841300,6.10684130859375,0.6305833836376666,-0.7252110478371381,-0.23515118345953523
1760107156501907500,6.116907470703125,0.5572790779739618,-0.7590174558490514,-0.3186608759909868
1760107156511972000,6.12697216796875,0.436650126555562,-0.7808896804392337,-0.3800995334245264
1760107156522038300,6.137038330078125,0.35695173594057555,-0.8187585155844688,-0.3997975923134014
1760107156532103400,6.147103515625,0.4154693913608789,-0.8677113470628857,-0.4346179631408304
1760107156542169300,6.15716943359375,0.5908662902772426,-0.8970900017604231,-0.37635552459061145
1760107156552234500,6.167234375,0.7962854024916887,-0.9461147294312715,-0.2883829160998575
1760107156562299100,6.177299072265625,0.891437382826209,-1.0119757333517074,-0.2326447353302501
1760107156572365300,6.187365234375,0.7991156574815511,-1.0265616003260016,-0.19956194715145975
1760107156582430500,6.197430419921875,0.5355319410681724,-0.9919280938401818,-0.14114484776249153
1760107156592496400,6.207496337890625,0.14433072952330112,-0.9141822985976934,-0.05919818503037095
1760107156602561300,6.217561279296875,-0.2520768184930086,-0.771892427252233,0.04169697403206955
1760107156612627200,6.227627197265625,-0.6054056877613068,-0.6617050826102495,0.1047742792178411
1760107156622692400,6.2376923828125,-0.9382032256543635,-0.6152271168127655,0.15592910511940716
1760107156632758300,6.24775830078125,-1.1422142246365548,-0.60742316506356,0.14722100760471074
1760107156642823200,6.2578232421875,-1.1922446222186087,-0.549669479753077,0.11852686457261442
1760107156652889300,6.267889404296875,-1.2211778712362051,-0.5409107114970684,0.0342901546745561
1760107156662954200,6.277954345703125,-1.2884481574326754,-0.6250321792513132,0.014320048795093316
1760107156673020400,6.2880205078125,-1.3092507069647312,-0.7259376085460185,0.1321678336459212
1760107156683085300,6.298085205078125,-1.236661271572113,-0.6812614314734935,0.2986718165325932
1760107156693151200,6.308151123046875,-1.140124558880925,-0.48248482601344583,0.48923546931743617
1760107156703216400,6.31821630859375,-1.0108639727175235,-0.30190409471839663,0.6801885415449738
1760107156713282300,6.3282822265625,-0.8413689913213253,-0.19395313082635401,0.8441322454895823
1760107156723347200,6.33834716796875,-0.7421136673212051,-0.06836977187097072,0.8971063683733344
1760107156733412400,6.348412353515625,-0.7895984720736742,0.06943009457886219,0.7822409489177167
1760107156743478300,6.358478271484375,-0.9756991358339786,0.14152677801847457,0.6107447472343221
1760107156753543400,6.36854345703125,-1.1257079109936952,0.1469824130758643,0.4435136556494981
1760107156763609300,6.378609375,-1.1467729108542204,0.11612287217080593,0.4107308185316622
1760107156773674200,6.38867431640625,-1.0627788688719273,0.09111322633773088,0.4678458406124264
1760107156783740200,6.398740234375,-1.1254244178771973,0.2250873970195651,0.545253782202676
1760107156793805300,6.408805419921875,-1.3953110338270664,0.455822444537282,0.5400803616201505
1760107156803871500,6.41887158203125,-1.702399545446038,0.6408367743656039,0.5124439840126782
1760107156813936000,6.42893603515625,-1.8920564403831959,0.8037079537078737,0.4317009066503495
1760107156824002300,6.439002197265625,-1.806360855180025,0.8615940332263707,0.3188501880180091
1760107156834067500,6.4490673828125,-1.3111392971903084,0.8532984985679387,0.2951503461418673
1760107156844133400,6.45913330078125,-0.5671405467748641,0.8317793251991271,0.3509519475365057
1760107156854198300,6.4691982421875,0.27255437385439873,0.6645780076980591,0.4073532683899626
1760107156864264200,6.47926416015625,0.9872750073373318,0.4349617350772023,0.39939083814341575
1760107156874329300,6.489329345703125,1.3604986636430025,0.24696955848187208,0.33099173058010634
1760107156884394500,6.49939453125,1.4100930078953504,0.12403700629621743,0.21364899775814264
1760107156894460200,6.509460205078125,1.0673843168407677,0.06595277385711669,0.13285885725053959
1760107156904525300,6.519525390625,0.6291711787521839,0.1850686903640628,0.16670162435062227
1760107156914591200,6.52959130859375,0.34176877985596654,0.41312750440984963,0.31490974329654126
1760107156924656400,6.539656494140625,0.27529344342947004,0.6079673549428581,0.5019077577553689
1760107156934722300,6.549722412109375,0.4054313969492912,0.7046379231467843,0.5861668804146349
1760107156944787200,6.559787109375,0.6253145033240318,0.6829010153740644,0.5475315544089302
1760107156954853400,6.569853271484375,0.75655837225914,0.5322799535349011,0.3641496480880305
1760107156964918300,6.579918212890625,0.7013719070881604,0.32264205458164213,0.08503586091911419
1760107156974984400,6.589984375,0.46153030079007146,0.1529144334733486,-0.11534455387522466
1760107156985049300,6.60004931640625,0.17035072144269942,0.05654664760828018,-0.1843979880282655
1760107156995115300,6.610115234375,-0.04552431833446026,0.06211100373715162,-0.059726378189516253
1760107157005180400,6.620180419921875,-0.08027297563254833,0.18645371498167515,0.23834802500577643
1760107157015246300,6.630246337890625,0.05456219579279423,0.3553755726650357,0.5806790966533124
1760107157025311200,6.640311279296875,0.3029670477747917,0.4845104866221547,0.8194709016375243
1760107157035376400,6.65037646484375,0.540517912787199,0.48197336935997004,0.8875599568709731
1760107157045442300,6.6604423828125,0.7871212683051824,0.34370500861555336,0.7228132659804075
1760107157055507500,6.670507568359375,1.0382955850005149,0.10887567752152681,0.39368334721680726
1760107157065573000,6.680572998046875,1.233697745591402,-0.1332847271129489,0.0930051318984013
1760107157075638300,6.69063818359375,1.3292442782014608,-0.3059212214052677,0.003649468126479769
1760107157085704400,6.700704345703125,1.3130711420357226,-0.36492110738456246,0.07791632950380444
1760107157095769300,6.710769287109375,1.1644494373202323,-0.29627193405032154,0.1580974438681267
1760107157105835300,6.720835205078125,0.9202005359739065,-0.19419775323718785,0.2105990173366852
1760107157115900200,6.730900146484375,0.6102525432705879,-0.12501403463482855,0.2395589351654984
1760107157125966300,6.74096630859375,0.274980139696598,-0.10552607483267784,0.2175114818725735
1760107157136031500,6.751031494140625,0.05917816515564918,-0.1681733774036169,0.09445202450477518
1760107157146097400,6.761097412109375,0.020500351715087888,-0.26008126125037667,-0.06768369843610562
1760107157156162300,6.771162353515625,0.18610475541353225,-0.38353316113501784,-0.2138390769701451
1760107157166227500,6.7812275390625,0.5116764337062836,-0.535818064533174,-0.24024940164769068
1760107157176293400,6.79129345703125,0.8644552678763866,-0.6525660828649997,-0.2202268052458763
1760107157186358300,6.801358154296875,1.0518711058884858,-0.6923194165825843,-0.1585060064027086
1760107157196424200,6.811424072265625,1.0349778387546538,-0.6914718598425388,-0.09692861635191366
1760107157206489300,6.8214892578125,0.8134381973445415,-0.6885942585796118,-0.06080841497229412
1760107157216555300,6.83155517578125,0.3552560379385948,-0.7373629656627774,-0.08243419965389184
1760107157226620200,6.8416201171875,-0.12276771701276301,-0.7197995441824198,-0.12435621918006799
1760107157236686300,6.851686279296875,-0.46573476674258707,-0.5934256193712354,-0.16877547148261218
1760107157246751200,6.861751220703125,-0.6908265476763248,-0.4842351768121123,-0.1415350343901664
1760107157256817400,6.8718173828125,-0.9527321017444134,-0.4394108234405517,-0.1160640820551198
1760107157266882300,6.88188232421875,-1.2615116351902484,-0.4104848809465766,-0.11701072438862174
1760107157276948200,6.8919482421875,-1.585747680965066,-0.3430389459222555,-0.20578407306931912
1760107157287013400,6.902013427734375,-1.7948469429969787,-0.2710331556364894,-0.25600546317882833
1760107157297079300,6.912079345703125,-1.8373288248956203,-0.23589520675987005,-0.21134715055655687
1760107157307144200,6.922144287109375,-1.6458184110462664,-0.2593535314977169,-0.1122625434808433
1760107157317209300,6.932209228515625,-1.2927917395949362,-0.2798842783510685,0.018686753821326417
1760107157327275300,6.942275146484375,-0.946296515738964,-0.34263328773081303,0.1724966474302113
1760107157337340400,6.95234033203125,-0.6979144601106644,-0.3739338504016399,0.34719807489570226
1760107157347406000,6.962406005859375,-0.6864876416891813,-0.3538762740179896,0.47709940664805467
1760107157357471200,6.97247119140625,-0.7649819172114133,-0.19436668006330726,0.547256646457687
1760107157367537200,6.982537109375,-0.8335212004303931,-0.06320844358503819,0.6135599873181432
1760107157377602300,6.992602294921875,-0.776731976237893,0.0688590166926384,0.7131593755155802
1760107157387668500,7.00266845703125,-0.5801110875070095,0.2059641788765788,0.6520709928244351
1760107157397733000,7.012733154296875,-0.30356676723361015,0.3222317202150822,0.42377369384765623
1760107157407799300,7.02279931640625,-0.060740007644891736,0.39342327150851486,0.17142569373045116
1760107157417864400,7.032864501953125,0.0534434208959341,0.4301958358496427,0.01492192139509134
1760107157427930400,7.042930419921875,0.11302665972113608,0.5377963788688183,0.014400884062517433
1760107157437995300,7.052995361328125,0.009398527464270591,0.630937019380927,0.1839212373619899
1760107157448060200,7.06306005859375,-0.3171002025455236,0.7056278109669685,0.40346513837762177
1760107157458126300,7.073126220703125,-0.8255372159391641,0.7458534383714198,0.45214328110050406
1760107157468191200,7.083191162109375,-1.2322142290353775,0.6878487009093165,0.365573543411307
1760107157478257200,7.093257080078125,-1.3900567665606736,0.48991643731892104,0.2946926289696246
1760107157488322300,7.103322265625,-1.3513374520659447,0.30367285795658827,0.19830179102253168
1760107157498388200,7.11338818359375,-1.2149363464981318,0.1612956005886197,0.023125421255361288
1760107157508453400,7.123453369140625,-0.9946353069722652,0.06608049189001321,-0.11864703861987218
1760107157518519000,7.13351904296875,-0.6881272255897521,0.12167232299149036,-0.22607881920970976
1760107157528584200,7.143584228515625,-0.39414895543456074,0.2550558343037963,-0.22279815357122568
1760107157538650400,7.153650390625,-0.13935060302317143,0.4170990383893251,-0.11210298727126791
1760107157548715300,7.16371533203125,0.04276946666836738,0.5473433748930693,-0.03330052258269861
1760107157558781200,7.17378125,0.18712065445780754,0.6334571855083108,0.02321541936006397
1760107157568846300,7.183846435546875,0.34651392855644225,0.6877063698291778,0.05142930459454655
1760107157578911200,7.1939111328125,0.5227846876978874,0.6571285684749484,-0.021743903769087046
1760107157588977400,7.203977294921875,0.6254080268263816,0.5121463893055915,-0.2022829330805689
1760107157599042300,7.214042236328125,0.6185521695822477,0.2956590628489852,-0.4499055851763114
1760107157609108200,7.224108154296875,0.49041035831570623,0.10135843375921248,-0.6713817694287747
1760107157619173400,7.23417333984375,0.29012860898971554,-0.0555456538721919,-0.823609901138395
1760107157629239300,7.2442392578125,0.09730652801990508,-0.07488514511436224,-0.8420496670618652
1760107157639304200,7.25430419921875,-0.09436930552423,0.020338731412589548,-0.6706674106143414
1760107157649370000,7.2643701171875,-0.2135696854442358,0.16129530832767486,-0.4345972491463646
1760107157659435300,7.274435302734375,-0.20668226401805875,0.3242299082949757,-0.20684527256004512
1760107157669501200,7.284501220703125,-0.09063421064913273,0.4132940931484103,-0.05060878199189901
1760107157679566000,7.294566162109375,0.07696341269314289,0.41585166867673395,0.02709744842518121
1760107157689632300,7.30463232421875,0.25541034682989117,0.39550533847957847,0.051095615660771726
1760107157699697200,7.314697265625,0.38576457344889636,0.3436500635579228,0.08438667629538103
1760107157709762300,7.32476220703125,0.47189971911311146,0.28816607674509287,0.13419807909820228
1760107157719828500,7.334828369140625,0.5007774385511875,0.2821852487698197,0.21861831060331313
1760107157729893000,7.34489306640625,0.5134802682578563,0.2486974051877856,0.27435853719953446
1760107157739959300,7.354959228515625,0.5745441010296345,0.16479162601083516,0.18875004575792698
1760107157750024200,7.365024169921875,0.7608306427508592,0.03196282597184181,-0.007932784026954322
1760107157760090400,7.37509033203125,0.9773813898324966,-0.19162644144445656,-0.23951347032226622
1760107157770155300,7.3851552734375,1.169832299402356,-0.4418360047608614,-0.4295581955332309
1760107157780221200,7.39522119140625,1.3022709310799836,-0.6282809519141912,-0.5708119287639856
1760107157790286300,7.405286376953125,1.3581862950474024,-0.7065387883320451,-0.6467845768541097
1760107157800352300,7.415352294921875,1.3232365622192621,-0.6868111745551229,-0.6041556146349758
1760107157810417200,7.425417236328125,1.1795493912965058,-0.6198638367027044,-0.4730041732236743
1760107157820483300,7.4354833984375,0.9777087220907211,-0.5267182277545333,-0.3554064061947167
1760107157830548200,7.44554833984375,0.801174928098917,-0.4559466554388404,-0.2921105217882432
1760107157840613400,7.45561328125,0.7146002219736576,-0.43868192464411254,-0.3104259124133736
1760107157850679000,7.465678955078125,0.6684194855570793,-0.4967188108101487,-0.36000009066052735
1760107157860744200,7.475744140625,0.6672557024747133,-0.5624708013981581,-0.44459436355829235
1760107157870810400,7.485810302734375,0.6893459537297487,-0.6299003698095679,-0.5147483884975314
1760107157880875300,7.495875244140625,0.6977765129446983,-0.6807043821126222,-0.5510786889638751
1760107157890941400,7.50594140625,0.63462418346107,-0.7114525715976953,-0.5080350084640085
1760107157901006300,7.51600634765625,0.5289519781559705,-0.6994049909293651,-0.45566765583436936
1760107157911072300,7.526072265625,0.4103682688295841,-0.6397238446876407,-0.4186706716202199
1760107157921137400,7.536137451171875,0.2250327442228794,-0.6218149707704782,-0.328841128417477
1760107157931203300,7.546203369140625,-0.024195699101686476,-0.6194286601558328,-0.1793027289821766
1760107157941268200,7.556268310546875,-0.3089958065450191,-0.5787070659279823,-0.08038785245018079
1760107157951334100,7.566334228515625,-0.5707844562351704,-0.48091947639286514,-0.012218315859045833
1760107157961399300,7.5763994140625,-0.773149441576004,-0.44505876619964835,0.006647621320933103
1760107157971464200,7.586464111328125,-0.9171674518883228,-0.44182577562779185,-0.025439872210193424
1760107157981530000,7.596530029296875,-0.9746288762539624,-0.46019028435796494,-0.07425817232243716
1760107157991595300,7.60659521484375,-1.0489672011405229,-0.4677481523916125,-0.12951350147854537
1760107158001661200,7.6166611328125,-1.217994565024972,-0.4568520798459649,-0.07347429193574935
1760107158011726300,7.626726318359375,-1.560560632738471,-0.45686610837131736,0.06308814167361707
1760107158021792300,7.636792236328125,-1.9104577739924191,-0.4917705407530069,0.2276330994470045
1760107158031857200,7.646857177734375,-2.0526859782785176,-0.46985009310692544,0.34933994576260446
1760107158041923300,7.65692333984375,-1.9826503190219402,-0.38263942716568705,0.48525129505209624
1760107158051988500,7.666988525390625,-1.7066443434089422,-0.31573388262838126,0.6570691664379089
1760107158062054100,7.67705419921875,-1.200405716842413,-0.3337479704856872,0.7752440027024596
1760107158072119300,7.687119384765625,-0.664686144247651,-0.38500469499230383,0.7997235602468251
1760107158082185200,7.697185302734375,-0.37749709584116936,-0.38486733234822745,0.6664900518644601
1760107158092250400,7.70725048828125,-0.41230478985011576,-0.32754736227989195,0.4692012007441371
1760107158102315300,7.717315185546875,-0.6845470290154219,-0.21213643777072427,0.3283190773047507
1760107158112381200,7.727381103515625,-0.9953151059299706,-0.06248597452938556,0.2625244531514123
1760107158122446300,7.7374462890625,-1.1738976491451263,0.10489566797465086,0.2355664314632304
1760107158132512300,7.74751220703125,-1.227283786895871,0.2314873271897435,0.20372032720623537
1760107158142577200,7.7575771484375,-1.2427888145416974,0.3067515347495675,0.15862400675918906
1760107158152643300,7.767643310546875,-1.1633902836561203,0.36488311346173286,0.1978455716876313
1760107158162708200,7.777708251953125,-1.0378595316708088,0.49634588584452866,0.26656883317138996
1760107158172774400,7.7877744140625,-0.7798737813949584,0.658503656220436,0.2947129593716003
1760107158182839000,7.797839111328125,-0.41812955048084255,0.7257961542487144,0.3951977338351309
1760107158192906000,7.807906005859375,0.013277414724230765,0.6812649386048316,0.5349070506354794
1760107158202971000,7.817970947265625,0.5688058496385813,0.5603437262415886,0.5905505023263394
1760107158213035800,7.828035888671875,1.062286701440811,0.39202129575610156,0.5626104290645569
1760107158223102000,7.83810205078125,1.2781746006995438,0.2353176991328597,0.5135604573545978
1760107158233166800,7.848166748046875,1.145121051993966,0.13642974714040756,0.3739297587484121
1760107158243233000,7.85823291015625,0.7754524578213692,0.1502422916546464,0.2081670226830989
1760107158253298000,7.8682978515625,0.48080958627760406,0.2890244471400976,0.11482903296798468
1760107158263363800,7.87836376953125,0.37085283552110193,0.4614306398078799,0.11924480358362197
1760107158273429000,7.888428955078125,0.464205657479167,0.5302578000575304,0.11603621680065988
1760107158283495000,7.898494873046875,0.7393389419108629,0.5395981675937771,0.07372128896676003
1760107158293559800,7.908559814453125,1.0018319404780864,0.4630462583109736,-0.047050103129632766
1760107158303625700,7.918625732421875,1.1063730959266425,0.32498277248889207,-0.21283972720187155
1760107158313691000,7.92869091796875,0.945817207789421,0.17511048319041728,-0.3331031697761267
1760107158323757000,7.938757080078125,0.5284451976776122,0.0884764480933547,-0.4332523738760501
1760107158333821700,7.94882177734375,0.071067924913764,0.011036065538227557,-0.44440249424800277
1760107158343886800,7.958886962890625,-0.29459377170503137,0.014578852711617945,-0.21973527713557703
1760107158353952800,7.968952880859375,-0.39722120248675347,0.23895021041631698,0.11899755082428455
1760107158364018000,7.979017822265625,-0.24731822578907012,0.3996379082396626,0.42873935343101616
1760107158374084000,7.989083984375,0.044021512556076045,0.4432572697356343,0.6815066384062171
1760107158384148700,7.999148681640625,0.3200046918153763,0.36628596599698066,0.8382134498998522
1760107158394215000,8.00921484375,0.5597253020823002,0.23965952772945165,0.7467762523047625
1760107158404280000,8.019280029296874,0.776124073472619,0.10180179361253976,0.4586741076413542
1760107158414346000,8.029345947265625,0.9260048383384942,-0.06938450187146664,0.13728797140493987
1760107158424411000,8.039410888671876,1.0474304930925369,-0.2601110718667507,-0.056448338332958516
1760107158434476800,8.049476806640625,1.1302221735477447,-0.37373072904497384,-0.12758852476533503
1760107158444542000,8.0595419921875,1.1573708772361277,-0.40825843706876036,-0.1070896891538985
1760107158454606800,8.06960693359375,0.990042133963108,-0.39794367154240606,-0.013277633919939398
1760107158464672800,8.0796728515625,0.6921317850559949,-0.30187369958013294,0.07661699214195831
1760107158474738000,8.089738037109376,0.4214396979421377,-0.12352934903502463,0.19139433145532384
1760107158484803800,8.099803955078125,0.13356149822771549,-0.022155425445735455,0.20651388518121092
1760107158494869000,8.109868896484375,0.0006453121662139892,-0.05764496423900127,0.09628434536531567
1760107158504935000,8.119934814453124,0.02621931388378143,-0.15490619181245566,-0.03260209198975935
1760107158514999800,8.129999755859375,0.20144027171134948,-0.2747057066693902,-0.12354927757820114
1760107158525066000,8.14006591796875,0.46932490018904205,-0.3609332067921758,-0.19460089067798106
1760107158535131000,8.150130859375,0.7264034724920988,-0.3920981603845954,-0.25070867194496094
1760107158545196800,8.16019677734375,0.8838514577418565,-0.4043544153675437,-0.2474551135091111
1760107158555262000,8.170261962890624,0.8649030116438865,-0.375002356415987,-0.17197996661234646
1760107158565326800,8.180326904296875,0.6287549991667271,-0.3242079887241125,-0.1600680132887326
1760107158575393000,8.19039306640625,0.21960078230202196,-0.2722302564665675,-0.2693853518968448
1760107158585458000,8.2004580078125,-0.3037754415482282,-0.24823650967776775,-0.34479484967887397
1760107158595523800,8.21052392578125,-0.7938952924847602,-0.22361294055283068,-0.3021269802214578
1760107158605589000,8.220589111328126,-1.2846972804665564,-0.13181027064621448,-0.23620608107363802
1760107158615655000,8.230655029296875,-1.6526012030541897,-0.002463759765028953,-0.23908289688527581
1760107158625719800,8.2407197265625,-1.9537755221933126,0.09698708680719137,-0.2907024450886063
1760107158635785700,8.25078564453125,-2.0747750604897734,0.1759665154978633,-0.28897324667582286
1760107158645851000,8.260850830078125,-1.9688725535601377,0.17917641745507715,-0.2398246551632881
1760107158655917000,8.2709169921875,-1.640658836326003,0.0919423706382513,-0.13798162535806185
1760107158665981700,8.280981689453125,-1.1659130801320075,0.02302081010341644,0.026509647733019663
1760107158676046800,8.291046875,-0.6673813746809959,0.03334025180488825,0.26787786994334306
1760107158686112800,8.30111279296875,-0.28937574479579925,-0.013419453543424605,0.5035339707177132
1760107158696178000,8.311177978515625,-0.1985200003504753,-0.15972966644614933,0.7158515372090041
1760107158706244000,8.321244140625,-0.2565413966864347,-0.29857991873174905,0.7794117899063974
1760107158716308700,8.331308837890624,-0.38602176308035846,-0.3644049745559692,0.741393463287875
1760107158726375000,8.341375,-0.4653326156824827,-0.2738368148803711,0.5850564349547028
1760107158736440000,8.351440185546876,-0.39840135218203065,-0.1590171342626214,0.3098759503804147
1760107158746506000,8.361506103515625,-0.300519654622674,-0.16845424017161129,-0.11748597721755503
1760107158756571000,8.37157080078125,-0.3095242143332958,-0.33355624730587,-0.4827007337864488
1760107158766636800,8.38163671875,-0.45424657352268694,-0.5577876120179891,-0.5413728856487199
1760107158776702000,8.391701904296875,-0.7869833211392164,-0.5446349927172065,-0.4984828613406047
1760107158786767000,8.40176708984375,-1.3091951773852109,-0.24162469032257794,-0.4409113641966134
1760107158796832800,8.411832763671875,-1.8300299000591038,0.12513123127371073,-0.25419158215727655
1760107158806898000,8.42189794921875,-2.2862860598385333,0.2967792990505695,-0.08195538489469327
1760107158816963800,8.4319638671875,-2.559744689056277,0.45029871267974375,0.10380007302397862
1760107158827029000,8.442029052734375,-2.3925094692856073,0.590235298897326,0.25584442739821966
1760107158837094700,8.4520947265625,-1.8916051894843577,0.7050333522051573,0.25154917788971215
1760107158847159800,8.462159912109374,-1.1171750604480504,0.6721727006107568,0.000618698153924197
1760107158857226000,8.47222607421875,-0.2996861264079809,0.4089183622822165,-0.3214407159678638
1760107158867291000,8.482290771484376,0.3664975629210472,0.17231559177488087,-0.5176216058462858
1760107158877357000,8.492357177734375,0.7822253129571676,0.058336745895445345,-0.622948870171234
1760107158887422000,8.502421875,1.0465180544227362,0.10767565408200025,-0.6914128231316804
1760107158897486800,8.51248681640625,1.1747492975383995,0.2697133052095771,-0.6644128071989863
1760107158907553000,8.522552978515625,1.1787819140553473,0.4434568839609623,-0.5252037315383553
1760107158917618000,8.532617919921876,1.1331985590100289,0.5288417957797646,-0.4075856523737311
1760107158927683800,8.542683837890625,1.085189438122511,0.5100310045868158,-0.3470962584890425
1760107158937749000,8.5527490234375,1.0055904162287712,0.4583846962407231,-0.37329964415133
1760107158947815000,8.56281494140625,0.8224614617556333,0.36272242829650636,-0.5260663397170603
1760107158957879800,8.5728798828125,0.5226742130607366,0.19912118111401794,-0.6915729821294546
1760107158967945700,8.58294580078125,0.12885258988440035,0.05592734666615724,-0.7787596096079796
1760107158978011000,8.593010986328125,-0.36153204946815964,-0.017747838136553763,-0.6918541371583938
1760107158988076000,8.603075927734375,-0.7743488804936408,0.05292027380466461,-0.5591376383874564
1760107158998142000,8.613141845703124,-0.8825649250626564,0.21471125669479368,-0.4224109541270882
1760107159008206800,8.623206787109375,-0.7608505164951086,0.3628980771243572,-0.1963853264093399
1760107159018272800,8.633272705078125,-0.41123628383576866,0.4354270145013928,0.03834523875163868
1760107159028338000,8.643337890625,0.13494447701871395,0.39805034678727386,0.19780145855126902
1760107159038404000,8.653404052734375,0.765402188450098,0.28600393027514215,0.18170381704084573
1760107159048468700,8.66346875,1.2037521046608686,0.05694412249326706,0.011459515114687383
1760107159058535000,8.673534912109375,1.4203899455040692,-0.22103578354120254,-0.2011397361285053
1760107159068600000,8.68360009765625,1.415104698577523,-0.45385202124714846,-0.3564674595549702
1760107159078666000,8.693666015625,1.2179723531931639,-0.5894935406193137,-0.44125389402396975
1760107159088731000,8.70373095703125,0.8921136746525764,-0.6255050574600696,-0.4722157993249595
1760107159098795800,8.713795654296876,0.6537316195130348,-0.5476370971426368,-0.43526389636155216
1760107159108862000,8.723862060546875,0.54286593721807,-0.4466770150512457,-0.3582513838296756
1760107159118927000,8.733927001953125,0.5673123962104321,-0.40623979072272776,-0.37193259358182545
1760107159128992800,8.74399267578125,0.7730769608616829,-0.4251531655073166,-0.44027905764244496
1760107159139058000,8.754057861328125,1.0239338821709156,-0.5132508434161543,-0.5298164129655808
1760107159149123800,8.764123779296876,1.171332182571292,-0.5619210585609078,-0.5713289383754134
1760107159159189000,8.77418896484375,1.1266788018524647,-0.5825248706504702,-0.5075559927754104
1760107159169254700,8.784254638671875,0.9521247835010289,-0.5141740957409143,-0.33303726493306457
1760107159179319800,8.79431982421875,0.7221528293102979,-0.3968006389871239,-0.13747781315492466
1760107159189386000,8.804385986328125,0.5174789825052023,-0.31999329363852735,-0.004836626376211643
1760107159199450400,8.814450439453125,0.3481745552450418,-0.2991758387982845,0.08012940244339406
1760107159209515000,8.824514892578126,0.20220248825550077,-0.2954302225291729,0.08061762435175478
1760107159219581200,8.834581298828125,0.0918593685299158,-0.32447219261825083,0.05732610754817724
1760107159229646000,8.84464599609375,0.033976503881812094,-0.34183979926556346,0.042576610977388914
1760107159239712300,8.854712158203125,0.03175707426667213,-0.3756412388414144,0.1106510896962136
1760107159249777200,8.864777099609375,0.07346329561769963,-0.3542380930677056,0.16875212713964283
1760107159259843000,8.874843017578126,0.08091244257986545,-0.34105274054110046,0.1990992250105366
1760107159269908200,8.884908203125,-0.006949965268373489,-0.352316477355361,0.19064963230155407
1760107159279974100,8.89497412109375,-0.20254326451718807,-0.37666006049513817,0.1558546333773993
1760107159290039000,8.9050390625,-0.4285030604571104,-0.413637792019546,0.1115739036295563
1760107159300105200,8.915105224609375,-0.571021772122383,-0.41174774048924445,0.0031514315019361672
1760107159310170000,8.925170166015626,-0.712900432318449,-0.4116641538590193,-0.10072466590031981
1760107159320235300,8.9352353515625,-0.9172136291176081,-0.3777949097439646,-0.008603796890005469
1760107159330301000,8.945301025390625,-1.1654822874993085,-0.2769087696716189,0.14184475792646406
1760107159340366000,8.955365966796874,-1.4404285249263047,-0.2940335074737668,0.3988371497834101
1760107159350432300,8.965432373046875,-1.5350146880716085,-0.25269202778190375,0.5532527085347101
1760107159360497200,8.9754970703125,-1.3882646224468946,-0.16641630460321902,0.6251872236825525
1760107159370563000,8.98556298828125,-1.0590461120843886,-0.16494097135365007,0.6791972654853016
1760107159380628200,8.995628173828125,-0.6292033274561166,-0.2662771932810545,0.6937831324595958
1760107159390694100,9.005694091796874,-0.22132804448604582,-0.4641039506703615,0.7273990594007075
1760107159400759300,9.01575927734375,-0.016718495088815687,-0.5766530560076236,0.7304676531910896
1760107159410824000,9.025823974609375,-0.11016074889600276,-0.4399290020957589,0.6830862357478589
1760107159420890000,9.03589013671875,-0.44695992364585396,-0.11931845334172247,0.6086326504511759
1760107159430955300,9.045955322265625,-0.9072107060194015,0.24472411764264104,0.5546233027681708
1760107159441021200,9.056021240234376,-1.3894360043138265,0.4618173010379076,0.579239638434723
1760107159451086000,9.066086181640625,-1.8026970719754696,0.5126902869239449,0.5965995732322334
1760107159461152000,9.076152099609375,-2.068867297750711,0.5495327016308903,0.41851544452589
1760107159471217200,9.086217041015624,-1.9742717822551725,0.5945905714973807,-0.06614922801097854
1760107159481283000,9.096282958984375,-1.5594254912286996,0.5419359628915786,-0.5178218776587397
1760107159491348000,9.106347900390626,-1.0184463906705379,0.3104726010993123,-0.8036285317961126
1760107159501414100,9.1164140625,-0.36272272055745125,0.024524200403690338,-0.8634010095831006
1760107159511479000,9.12647900390625,0.1805330927610397,-0.14680588746517895,-0.7319407944835722
1760107159521544200,9.136544189453126,0.5405693507134914,-0.08031301538199186,-0.2987773044673726
1760107159531610400,9.1466103515625,0.7392839968532323,0.1258677288547158,0.30960279599484053
1760107159541675000,9.156675048828125,0.6628495764702558,0.4306283820480108,0.7242748629655689
1760107159551741200,9.1667412109375,0.33998365000486375,0.6900909268781542,0.8487601975511759
1760107159561806000,9.17680615234375,-0.08066577434241771,0.7489666019558906,0.742038775454089
1760107159571872300,9.186872314453124,-0.4044342026054859,0.6241966052100062,0.37048097000140695
1760107159581937200,9.196937255859375,-0.4624269573688507,0.43504444492459293,-0.07108892203602007
1760107159592003000,9.207003173828125,-0.1899450642287731,0.28687720597833394,-0.37779268125426024
1760107159602068200,9.217068115234374,0.27410861755907534,0.16590075629651546,-0.41552159647215153
1760107159612133000,9.227133056640625,0.7485802329868078,0.10639379757791757,-0.4209414660964161
1760107159622199000,9.237198974609376,0.9855892462074756,0.0540253124371171,-0.5049318182842806
1760107159632264200,9.24726416015625,1.0322574738800525,0.06900953107923269,-0.44177298599462955
1760107159642330000,9.257330078125,0.8980962561935186,0.20486293963640928,-0.19769056378901004
1760107159652395300,9.267395263671874,0.5290840801030398,0.36961481815874575,0.08817055134880356
1760107159662461000,9.2774609375,0.03385141619741917,0.5012172912731766,0.35155820633396506
1760107159672526000,9.287526123046876,-0.31929917389452456,0.6213999602288007,0.47876313860919323
1760107159682592300,9.29759228515625,-0.40514673478901386,0.6250280875980854,0.39955907084979114
1760107159692657200,9.3076572265625,-0.23477204794883727,0.5413108167305588,0.2939898692614399
1760107159702723000,9.31772314453125,0.0010392799198627471,0.4388037974581122,0.07287096031431574
1760107159712788200,9.327788330078125,0.2527875971108675,0.27799159647226335,-0.15166786747835576
1760107159722853000,9.33785302734375,0.5191758495509624,0.06822159557193518,-0.3519905698692426
1760107159732919300,9.347919189453124,0.6929302419573068,-0.05071195010542869,-0.458783924691379
1760107159742984000,9.35798388671875,0.73684537152946,-0.020173603978753087,-0.30914259460456667
1760107159753050000,9.368050048828126,0.6998369526058436,0.12672346890121697,0.013658911155373788
1760107159763115300,9.378115234375,0.674123250156641,0.2999485767364502,0.3590659881481901
1760107159773181200,9.38818115234375,0.5658364784389734,0.3930114758372307,0.6339367857187986
1760107159783246000,9.39824609375,0.46899581436514853,0.38659722488075493,0.6907034327533096
1760107159793312000,9.40831201171875,0.43805765526592727,0.26281594691127536,0.501396922156401
1760107159803377200,9.418377197265626,0.47235213905572887,0.06400777726918458,0.22540844566747545
1760107159813442300,9.4284423828125,0.5152221434891223,-0.18357874406725166,-0.048540844010887665
1760107159823508000,9.438508056640625,0.6144716222703457,-0.3893587985485792,-0.26297418794659894
1760107159833573000,9.448572998046876,0.8119184404313564,-0.5150181453496218,-0.41639647961053994
1760107159843639000,9.45863916015625,1.0293623369604348,-0.5986880699440836,-0.41320663406066593
1760107159853704200,9.4687041015625,1.1797983976215123,-0.6377803094044328,-0.32698826709240675
1760107159863770400,9.478770263671874,1.2213257552742958,-0.5647238410219549,-0.1689325800067745
1760107159873835000,9.4888349609375,1.093757359981537,-0.4498959770977497,0.03275689895898103
1760107159883901200,9.498901123046876,0.8123989174246787,-0.3336804582074284,0.22917612763792275
1760107159893966000,9.508966064453125,0.4500742562741041,-0.24162673614919183,0.418098863081634
1760107159904032300,9.5190322265625,0.10548632734417915,-0.16574410443007945,0.5678266293428837
1760107159914097200,9.52909716796875,-0.24554011020064354,-0.08280424767583608,0.5536055405603721
1760107159924162000,9.539162109375,-0.5758516764968633,-0.04471329421252012,0.404803693505004
1760107159934228200,9.549228271484376,-0.9126894296914339,-0.030086510705947873,0.2038744948546402
1760107159944293000,9.559293212890625,-1.1605553524911403,-0.08613894505649805,0.021799725609552113
1760107159954359000,9.569359130859375,-1.344896605363488,-0.16492694282829762,-0.014495017202931922
1760107159964424200,9.579424072265626,-1.5341905122071504,-0.16051058769077062,-0.034793434871442146
1760107159974490000,9.589489990234375,-1.6439701528310775,-0.0829860339835286,0.07628553626446519
1760107159984555300,9.59955517578125,-1.6980629775464533,0.03877309050858021,0.2632274320553057
1760107159994620200,9.6096201171875,-1.5156483088225126,0.15481149926632642,0.45625111827813086
1760107160004686000,9.61968603515625,-1.155410390818119,0.17617402076870203,0.5953454084526747
1760107160014751200,9.629751220703126,-0.7578975119084119,0.10347440299987792,0.6002880159540102
1760107160024817200,9.639817138671875,-0.5373620791047811,-0.042160102598369116,0.47005927887819704
1760107160034882000,9.649882080078125,-0.5156295552462339,-0.2606768890559673,0.25762069808943194
1760107160044948200,9.6599482421875,-0.535342555975914,-0.40234249102324243,-0.012236481703398748
1760107160055013000,9.67001318359375,-0.5101549232274294,-0.4603597957059741,-0.21099850151566787
1760107160065079300,9.680079345703126,-0.3341892845124006,-0.41163843489587304,-0.3095315208569169
1760107160075144000,9.69014404296875,-0.09743746092319489,-0.24884528922587631,-0.31905721836481243
1760107160085210000,9.700210205078125,0.13540215765833855,-0.07505757907181977,-0.22826299484837798
1760107160095275300,9.710275146484374,0.2649555892884731,0.1347927935883403,-0.08592269022362306
1760107160105340200,9.720340087890625,0.11138473773300647,0.28424714973568915,0.05617159005107823
1760107160115406000,9.730406005859376,-0.31808921358287334,0.410301341073215,0.19105731805330142
1760107160125471200,9.74047119140625,-0.9942314023464918,0.5974047521352768,0.23775449782572686
1760107160135537200,9.750537109375,-1.764433684554696,0.7089820898309349,0.14562259596474467
1760107160145602300,9.760602294921876,-2.314519051632285,0.6278346694514155,0.07096306716664694
1760107160155668000,9.77066796875,-2.5985271319150924,0.5749985667988657,0.10574808355290442
1760107160165733000,9.780733154296875,-2.464227382540703,0.5809738418161868,0.10951271504973992
1760107160175799000,9.790799072265624,-1.8552701397776603,0.5933657058775424,0.04260426616929471
1760107160185864200,9.8008642578125,-0.9776146140664815,0.5441188598886132,-0.04140057120164856
1760107160195929000,9.81092919921875,-0.08315174593925476,0.40226679543852806,-0.11089182138321921
1760107160205995000,9.8209951171875,0.644984249433875,0.29792233160585163,-0.23828138951035216
1760107160216060000,9.831059814453125,1.2429799531996248,0.16083645864427087,-0.4405808901332319
1760107160226126000,9.8411259765625,1.5687001000523566,-0.008063187207281589,-0.6133862381864339
1760107160236191000,9.85119091796875,1.6562082876354456,-0.10709376254081726,-0.7614955364003777
1760107160246257200,9.861257080078126,1.5262421835511921,-0.10048895744830369,-0.8670074365772307
1760107160256321800,9.87132177734375,1.2897744376003741,-0.04644698613733053,-0.8953789600588381
1760107160266388000,9.881387939453125,1.0346206958800555,-0.03333879050016403,-0.9111661656469107
1760107160276453000,9.891453125,0.7899532768607139,-0.03612812895774841,-0.8953628857068717
1760107160286518000,9.90151806640625,0.5454775810211897,-0.01462532220184803,-0.8121352980524301
1760107160296584200,9.911584228515625,0.2625911982446909,0.001997019036114216,-0.6970666841749101
1760107160306649000,9.921649169921874,0.035683892321586606,-0.011517127053439616,-0.5826254449481144
1760107160316715000,9.931715087890625,-0.1937970634818077,0.00672989277690649,-0.4524286008479073
1760107160326780200,9.9417802734375,-0.49259705470502374,-0.0036219898894429203,-0.34331736100483684
1760107160336846000,9.95184619140625,-0.7510860783278942,-0.06846300311237573,-0.1899349081609398
1760107160346911000,9.961910888671875,-0.8618231658071279,-0.07457271816432476,-0.08392304083900526
1760107160356977000,9.971976806640624,-0.7038648929476737,-0.012190496270358562,-0.037859409729763864
1760107160367042000,9.9820419921875,-0.2932119619578123,0.04958937581628561,0.015764007375575602
1760107160377107000,9.99210693359375,0.23765607895255086,0.023467092566192147,0.09821175149763002
1760107160387172900,10.0021728515625,0.7414414671480655,-0.08790887733846903,0.13124434385914355
1760107160397238000,10.012238037109375,1.1374696604579686,-0.22085984245240686,0.054246060782019045
1760107160407304000,10.022303955078126,1.3217758420169352,-0.3306295462042093,-0.10900986182782799
1760107160417369000,10.032369140625,1.2900596842825411,-0.44304333472400903,-0.24335730453515425
1760107160427435000,10.04243505859375,1.085565870219469,-0.5304390018433333,-0.2745628093336709
1760107160437500000,10.0525,0.7718103019267321,-0.6048042147368192,-0.2931416732005775
1760107160447566000,10.062566162109375,0.5446896455138921,-0.607512596912682,-0.30786366070993243
1760107160457631200,10.07263134765625,0.4721978252768516,-0.5544429777652025,-0.30607023795451965
1760107160467695900,10.08269580078125,0.522362078371644,-0.5465639149531721,-0.26130731418030334
1760107160477762000,10.092761962890625,0.5929793369084596,-0.587708118507266,-0.16201805137796327
1760107160487827000,10.102826904296874,0.6505623418271541,-0.6335457405745982,-0.09197746021794155
1760107160497893000,10.11289306640625,0.6290373232394456,-0.6726604841277003,-0.11124569458849727
1760107160507958000,10.1229580078125,0.6134679981857538,-0.6985188557446003,-0.1272695767429657
1760107160518024000,10.13302392578125,0.6683142716169357,-0.7553188935920596,-0.1571939922223799
1760107160528089000,10.143089111328125,0.7571399715393782,-0.8230608889535069,-0.21903902023341507
1760107160538155000,10.153155029296874,0.7101093402951956,-0.9914259895369409,-0.266666904984694
1760107160548220000,10.163219970703125,0.5998983225166797,-1.1336018791139124,-0.3957008975842967
1760107160558285000,10.17328515625,0.43787236182689665,-1.2005308045268057,-0.547650358483009
1760107160568351000,10.18335107421875,0.2494189974606037,-1.2157698747128247,-0.5937802414951846
1760107160578416000,10.193416015625,-0.0008043021202087402,-1.2281807357355952,-0.4729634028218686
1760107160588481800,10.203481689453126,-0.21344050610661505,-1.1509887749835848,-0.2410661431243643
1760107160598547000,10.213546875,-0.45882805609405036,-0.9279925050243735,0.010480788009334356
1760107160608613000,10.223613037109375,-0.6989572471618652,-0.6513268964588642,0.1879675901433453
1760107160618678000,10.233677978515624,-0.9439718721836805,-0.4107803567618131,0.2665202082566917
1760107160628743000,10.243742919921875,-1.15070849673748,-0.3004062573760748,0.36424390224274245
1760107160638809000,10.25380908203125,-1.410121649467945,-0.22980127379894255,0.33915837816186245
1760107160648874000,10.2638740234375,-1.673255284026265,-0.15538023906499146,0.25632435640227047
1760107160658940200,10.273940185546875,-1.9865268681943415,-0.08129822702705859,0.23872052984628825
1760107160669004800,10.2840048828125,-2.250478248876333,0.043084523966908456,0.35854689617753027
1760107160679071000,10.294071044921875,-2.2424334741085765,0.19602058475017548,0.6108160954374819
1760107160689136000,10.30413623046875,-1.933335960754752,0.2823018608868122,0.8799470707144588
1760107160699202000,10.3142021484375,-1.4378256489515304,0.29923166063874956,1.0676517356052995
1760107160709267000,10.324266845703125,-0.9925333662569522,0.18721300891637802,1.1417226417273283
1760107160719332000,10.33433203125,-0.6808323924064635,-0.03537175763249397,1.0960914289522916
1760107160729398000,10.34439794921875,-0.5386772533565759,-0.18418693909347056,0.9253574072804301
1760107160739463200,10.354463134765625,-0.5669359641134739,-0.19038433242887257,0.6010015710508451
1760107160749529000,10.364529052734374,-0.6988900271445513,-0.16061872424036264,0.20160956386364995
1760107160759594000,10.374593994140625,-0.8584159877121448,-0.15002192690223454,-0.09072095735082403
1760107160769660000,10.384659912109376,-0.925878581610322,-0.13480360724329948,-0.23952843042938038
1760107160779725000,10.39472509765625,-0.8858867629617452,0.0031736616000533104,-0.23436280956082045
1760107160789791200,10.404791259765625,-0.775185915839672,0.2702405439540744,-0.15988416288811713
1760107160799855900,10.41485595703125,-0.6198936473190784,0.5157423679709434,-0.006535032358509488
1760107160809921000,10.424921142578125,-0.46431554759442806,0.7223799160644412,0.22804007281269878
1760107160819987000,10.434987060546876,-0.4016238213598728,0.8410828678563237,0.5156200932981446
1760107160830051800,10.4450517578125,-0.4039730148345232,0.921855609704554,0.8099697905816138
1760107160840118000,10.455117919921875,-0.37578970740139483,1.0509227191224693,0.935309842300415
1760107160850183000,10.465182861328126,-0.28619711475968357,1.1373065788507462,0.8652430572532117
1760107160860249000,10.4752490234375,-0.10586451300680637,1.0939528825536369,0.7515290728550403
1760107160870314200,10.485314208984375,0.2756266209065914,0.9283686448603868,0.6290383461527526
1760107160880380000,10.4953798828125,0.6928443172395229,0.7898232207402587,0.5514393024371936
1760107160890445000,10.505445068359375,1.0144599513828754,0.7365314832746982,0.4568827672451734
1760107160900510000,10.515510009765626,1.1446002429902553,0.7106815872251987,0.3919674101443961
1760107160910576000,10.525576171875,1.1645108121186494,0.728165513728559,0.4075572299968451
1760107160920641000,10.53564111328125,1.1243185024619102,0.7750295562341809,0.4419342044383287
1760107160930707000,10.54570703125,1.0276011725068093,0.8300748593688011,0.4247489686205983
1760107160940772000,10.555772216796875,0.8242588665664196,0.8489604693636298,0.394128241440095
1760107160950838000,10.565838134765626,0.4613146122127771,0.8323042258560657,0.24563721389956772
1760107160960903000,10.57590283203125,0.028459201765060425,0.7550222487330436,-0.010285886491741985
1760107160970968000,10.585968017578125,-0.2649602654635906,0.6206240074202418,-0.19376644914783536
1760107160981034000,10.596033935546876,-0.34355332518517967,0.5371288548707962,-0.22777122927606105
1760107160991099100,10.60609912109375,-0.21588205403983593,0.5312918192803859,-0.16535503204725682
1760107161001164800,10.616164794921875,0.05499298842549324,0.5521504829138517,0.018604902490461244
1760107161011230000,10.62622998046875,0.42505379678606986,0.5150757207557559,0.23160456036124377
1760107161021296000,10.636296142578125,0.8278682892352343,0.4148775629475713,0.3774733131067827
1760107161031361000,10.646361083984376,1.15792617303133,0.3051063978910446,0.4280096509169787
1760107161041427000,10.656427001953125,1.3300287065774201,0.16151128916591406,0.4038568045763299
1760107161051492000,10.6664921875,1.3173323066115379,0.008569675424695014,0.334213688301295
1760107161061557000,10.676556884765626,1.1463158147364854,-0.06665595369040965,0.254991609961167
1760107161071623200,10.686623046875,0.9073036449998617,-0.04238134413361549,0.22411590337259693
1760107161081687800,10.696687744140625,0.6953378876209259,0.022418460296094418,0.2401826565544121
1760107161091754000,10.70675390625,0.5345137039363383,0.06066898823529482,0.26498454138832167
1760107161101819100,10.716819091796875,0.41657004607915876,0.06322860959023237,0.300445840467792
1760107161111885000,10.726885009765626,0.35762335159182546,0.03674129242002964,0.294131652352307
1760107161121950000,10.736949951171875,0.363614700961113,-0.0015600889235734938,0.2312010575942695
1760107161132015900,10.747015869140625,0.35247722087502475,-0.10055267033427953,0.07663685675305314
1760107161142081000,10.7570810546875,0.29184651882350443,-0.2038181067585945,-0.07545309946173802
1760107161152146200,10.767146240234375,0.13346622115969656,-0.30711452284306284,-0.1508939878958743
1760107161162211800,10.7772119140625,0.01081248591542244,-0.34388796396702526,-0.0634460973989684
1760107161172277000,10.787277099609375,-0.021660043144226072,-0.28302871385663747,0.023456790367886424
1760107161182343000,10.797343017578125,0.013516484177112579,-0.20345716449171303,0.06914839156065136
1760107161192408000,10.807407958984374,0.08915478574633598,-0.21266250747144222,0.06889954963242635
1760107161202474200,10.81747412109375,0.24271570042967794,-0.3044333209350705,-0.008104021541168913
1760107161212539100,10.8275390625,0.3953969096690416,-0.4459001854598522,-0.17021900308812035
1760107161222604300,10.837604248046874,0.4081020774632692,-0.5606836257204413,-0.3791518407782539
1760107161232670200,10.847670166015625,0.22999416602253914,-0.6048959846735,-0.5303986698329448
1760107161242735000,10.857735107421876,-0.05736790086328983,-0.5631780728846788,-0.59110313124042
1760107161252801300,10.86780126953125,-0.338259894952178,-0.44673955889344213,-0.5925655319431796
1760107161262866200,10.8778662109375,-0.5803969187110662,-0.33645167648643254,-0.5692955328516662
1760107161272932400,10.887932373046874,-0.8384709317922592,-0.26449586282223464,-0.6175445269096642
1760107161282997200,10.897997314453125,-1.08006259662807,-0.2232680726379156,-0.642973421068117
1760107161293063200,10.908063232421876,-1.1698247006177902,-0.16515402958244085,-0.6053552727483212
1760107161303128300,10.91812841796875,-1.1871370699465273,-0.1552820393875241,-0.5062617151811719
1760107161313193200,10.928193115234375,-1.1578092686533927,-0.1924684452265501,-0.2643176201784983
1760107161323259400,10.93825927734375,-1.0219470922678708,-0.2540682845711708,0.1458381018789485
1760107161333324300,10.94832421875,-0.8195780152738094,-0.26526655493378637,0.5167311232799664
1760107161343390200,10.95839013671875,-0.688574969357252,-0.22388094383925197,0.6683174134220927
1760107161353455400,10.968455322265624,-0.7267693831950426,-0.1900713209569454,0.6371669998116791
1760107161363521300,10.978521240234375,-0.9140010968118906,-0.22612667693942784,0.5274680962737649
1760107161373586200,10.988586181640626,-1.0740268235951662,-0.2466998016297817,0.4146739301342517
1760107161383651300,10.9986513671875,-1.0171534282505512,-0.14224486315995455,0.20912980330064893
1760107161393717200,11.00871728515625,-0.8337409806609153,0.10051087701916694,-0.12737426096014678
1760107161403782400,11.018782470703124,-0.7821060704916715,0.2805041638150811,-0.33699520877860484
1760107161413848000,11.02884814453125,-0.881948254469037,0.3557873683363199,-0.32059301309734584
1760107161423913200,11.038913330078126,-1.1188263347864151,0.3349041547834873,-0.17587702884981407
1760107161433979400,11.0489794921875,-1.421250361725688,0.46209933284968135,-0.12264655658481642
1760107161444044300,11.059044189453125,-1.7312632363587617,0.599892185036838,-0.22077839298034085
1760107161454110200,11.069110107421874,-1.855015288233757,0.6032572775557636,-0.22548753878567365
1760107161464175000,11.079175048828125,-1.7689286578863859,0.559723840777576,-0.0508920650458429
1760107161474240300,11.089240234375,-1.3658715888530015,0.5041626970753074,0.11262668235180899
1760107161484306400,11.099306396484375,-0.6733908442288636,0.41272213847935196,0.24543677769033237
1760107161494371000,11.10937109375,0.0982949545353651,0.30460254002213477,0.2651633320213295
1760107161504437200,11.119437255859374,0.6982090591430664,0.16111702915132045,0.26608570756325495
1760107161514502400,11.12950244140625,1.0810738194972276,0.04700052836686373,0.25954342804662883
1760107161524568300,11.139568359375,1.2608593087613582,0.007696107460558414,0.20309607609435915
1760107161534633200,11.14963330078125,1.3074702532887459,0.012583294980227946,0.10576586580476723
1760107161544698000,11.159697998046875,1.205288228186965,0.06653641896396875,0.019543076106428633
1760107161554764300,11.169764404296876,1.1114981838554143,0.2080623201996088,-0.046865147617319594
1760107161564829400,11.179829345703125,0.9305804756909608,0.27955256217867136,-0.03448396478018258
1760107161574895400,11.189895263671875,0.8086749284654855,0.29441256991922854,-0.0695741472586291
1760107161584960300,11.199960205078124,0.7729957123190164,0.310723068729043,-0.18140061457687987
1760107161595026200,11.210026123046875,0.7292068394750356,0.25608108569830657,-0.2731120808023959
1760107161605091300,11.22009130859375,0.5368289951413869,0.1809866817474365,-0.3492590990787372
1760107161615157200,11.2301572265625,0.14351473696529865,0.1578419530034065,-0.3194950252601877
1760107161625222100,11.24022216796875,-0.35990298696160317,0.19213614453226327,-0.1954197145138867
1760107161635287300,11.250287353515626,-0.8329279107123613,0.26425299397706986,-0.025702614799607542
1760107161645353200,11.260353271484375,-1.20740478194952,0.37870354902148246,0.22582579429671168
1760107161655418000,11.270418212890625,-1.340331489405036,0.47744157114922997,0.4754535391371697
1760107161665484300,11.280484375,-1.2849597307950258,0.5333420298084617,0.6584092559352517
1760107161675549200,11.290549072265625,-1.0403279676109551,0.499467232735455,0.7165816050492226
1760107161685615400,11.300615478515626,-0.6585889964163303,0.3693593820929527,0.6505263206657022
1760107161695680300,11.31068017578125,-0.11537760676145553,0.16437924581766128,0.4877927962284535
1760107161705745200,11.3207451171875,0.48801907926499843,-0.04972352358996868,0.2618434120846912
1760107161715811300,11.330811279296874,0.9536813652932643,-0.2540393507376313,0.0664129204484634
1760107161725876200,11.340876220703125,1.2080395727217197,-0.41168431986421344,-0.008822298478893936
1760107161735942400,11.3509423828125,1.324144909235835,-0.47318157561719415,-0.005515968676190823
1760107161746007300,11.36100732421875,1.3852788846343755,-0.49695729574114084,-0.016458387414482422
1760107161756073200,11.3710732421875,1.3776917905062436,-0.509969045266509,-0.052024699504696764
1760107161766138400,11.381138427734374,1.3348469205141067,-0.5436185091510415,-0.12872815978713334
1760107161776203300,11.391203369140625,1.229488018941879,-0.594830517733097,-0.21146812832141293
1760107161786269200,11.401269287109375,1.062462058007717,-0.6358788596972823,-0.3051629869164899
1760107161796334300,11.411334228515624,0.8712684550225734,-0.6541036676958203,-0.36417909337822346
1760107161806400300,11.421400146484375,0.7419611071079969,-0.6173463009238243,-0.4107929239824414
1760107161816465400,11.43146533203125,0.6696504886567592,-0.561381837117672,-0.4037693089559674
1760107161826531000,11.441531005859375,0.6942834101319313,-0.542944263151288,-0.36213337636217474
1760107161836596200,11.45159619140625,0.7115455105781555,-0.5476014413073659,-0.2860540895598009
1760107161846662400,11.461662353515624,0.6809978121012449,-0.5552960874632,-0.21544397314982489
1760107161856727300,11.471727294921875,0.6480366227418184,-0.5175269133001565,-0.1687006526807323
1760107161866792200,11.481792236328126,0.6034183133363723,-0.4989043381556868,-0.16870012295776976
1760107161876858000,11.491858154296875,0.5632382786393165,-0.5570277335613966,-0.15919906670078635
1760107161886923300,11.50192333984375,0.48397944848537444,-0.6241203251034021,-0.13625989786568096
1760107161896989400,11.511989501953124,0.3752069390773773,-0.6611430648133159,-0.13106520616626366
1760107161907054000,11.52205419921875,0.26166473104953764,-0.6701154758200049,-0.14280760247609578
1760107161917120300,11.532120361328126,0.17492577427327632,-0.6210498316168784,-0.10612453391617163
1760107161927185400,11.542185302734374,0.06403028136193752,-0.5407888386830687,0.0695628358467482
1760107161937250300,11.552250244140625,-0.14024316794872282,-0.4800175591170788,0.27267416430916636
1760107161947316200,11.562316162109376,-0.38797932688891884,-0.4062292693287134,0.39729010300450024
1760107161957381400,11.57238134765625,-0.6508370671153069,-0.2939686255440116,0.3874532206555828
1760107161967447300,11.582447265625,-0.8733943611353635,-0.2432870705768466,0.3083198435122147
1760107161977512400,11.592512451171874,-1.0909656834363937,-0.2670569454818964,0.18315116630494593
1760107161987578000,11.602578125,-1.198022036576271,-0.27327830421477556,0.08458513061008416
1760107161997643300,11.612643310546876,-1.3432961844295261,-0.24057488900870083,0.04319338660228531
1760107162007709200,11.622709228515625,-1.6167834552198648,-0.2328510167583823,-0.016924760533927472
1760107162017774300,11.6327744140625,-1.767361554700136,-0.27800474821478127,0.02576977773470571
1760107162027839200,11.642839111328126,-1.6127093376487494,-0.2797261651799083,0.14487174106482414
1760107162037905200,11.6529052734375,-1.310965109667182,-0.21341566392630337,0.305739033238776
1760107162047970300,11.66297021484375,-0.9418681779026985,-0.1992430539280176,0.5750660060118884
1760107162058036200,11.6730361328125,-0.5508230337023735,-0.24574644642770288,0.8970259235482663
1760107162068101000,11.68310107421875,-0.2907242367953062,-0.24061551328003405,1.1121310749314726
1760107162078167300,11.693167236328126,-0.34014673161208625,-0.16227496701478958,1.1857479536756872
1760107162088232200,11.703232177734375,-0.775368871191144,-0.08491115682721137,1.168435292086005
1760107162098297300,11.71329736328125,-1.3460633110553026,-0.0064954994991421695,1.0483871362302453
1760107162108363300,11.72336328125,-1.767187951698899,0.12512392475008963,0.9075555008690803
1760107162118428200,11.73342822265625,-1.9930670836180446,0.20914777734875678,0.9126306852415204
1760107162128494300,11.743494384765626,-2.109523133265972,0.2835907316535711,0.8689803440853953
1760107162138559200,11.753559326171874,-2.127104382663965,0.32925884237289427,0.7004981199283152
1760107162148625400,11.76362548828125,-2.0757202323853967,0.3539680439546704,0.5019204711064696
1760107162158690300,11.773690185546876,-1.8883324514240025,0.38499826525151726,0.41100448437388987
1760107162168755200,11.783755126953125,-1.4902654457628726,0.45346740584373474,0.4634104885134846
1760107162178821400,11.7938212890625,-0.8913631485462188,0.4992793089479208,0.5949314208243042
1760107162188886300,11.80388623046875,-0.2189887878835201,0.47139060054719445,0.6863558320030569
1760107162198952400,11.813952392578125,0.34805648182332516,0.36191286547929047,0.6202390997558832
1760107162209017300,11.824017333984376,0.8091630042433738,0.1664209807783365,0.4576615330653265
1760107162219083300,11.834083251953125,1.207811609184742,-0.00888356367945671,0.29196461051153016
1760107162229148400,11.8441484375,1.46999773375988,-0.12611790422350166,0.15608199412617832
1760107162239213600,11.854213623046874,1.5654513273894786,-0.20049656112045047,0.059222534020338204
1760107162249279500,11.864279541015625,1.520257848444581,-0.22758067514002323,0.045872209323523566
1760107162259344400,11.874344482421876,1.3967127173185347,-0.15562836860716342,0.011853418936254455
1760107162269410300,11.884410400390625,1.1467074444025753,-0.06519523348808288,-0.07231906661917455
1760107162279475500,11.894475341796875,0.7921148388087749,-0.021500468668341634,-0.1628742663484998
1760107162289541400,11.904541259765624,0.5120955359011888,0.016813772156834602,-0.2833921403415501
1760107162299606300,11.914606201171875,0.37225393449068067,0.07795067016482353,-0.3662993369352072
1760107162309672400,11.92467236328125,0.2981552635788917,0.1143567392811179,-0.39842889777608215
1760107162319737300,11.9347373046875,0.2407914543688297,0.08467647128850221,-0.3096312549043447
1760107162329802200,11.94480224609375,0.1876613372057676,0.09668664255589246,-0.07573714970066212
1760107162339868400,11.954868408203126,0.1472065772205591,0.15501608192771674,0.1679012824639678
1760107162349933300,11.964933349609375,0.06086392628550529,0.21614479662925004,0.39677846368793396
1760107162359999500,11.97499951171875,0.04620177920460701,0.30003596275895833,0.5235588869407772
1760107162370064400,11.985064453125,0.12313771936893463,0.3629147359982133,0.5452979866705835
1760107162380130300,11.99513037109375,0.3042787148952484,0.30223025793284175,0.4161773934997618
1760107162390195500,12.005195556640626,0.6037742871671915,0.1229033260911703,0.22192443947661666
1760107162400260400,12.01526025390625,0.8864385516256094,-0.04722410798966884,0.06145041180341504
1760107162410326500,12.025326416015625,1.0554740988165139,-0.16095160945653914,-0.010123937395680694
1760107162420391400,12.035391357421876,1.1400123306781054,-0.19556319637149572,0.016459889818402008
1760107162430457300,12.045457275390625,1.0697019461333752,-0.18431202677786349,0.09159489064114168
1760107162440522500,12.0555224609375,0.9237994372487067,-0.14418255322426557,0.1635619015527889
1760107162450588400,12.06558837890625,0.7531681452989578,-0.06384352661818266,0.17253347230926155
1760107162460653300,12.0756533203125,0.5495768330335616,-0.018001228375732897,0.12899177915938198
1760107162470718500,12.085718505859376,0.36484395049512386,-0.023629297390580176,0.016469333500182256
1760107162480784400,12.095784423828125,0.262732652541995,-0.14015636644810436,-0.11366795329935848
1760107162490849500,12.105849609375,0.25906770029366016,-0.2901025977656245,-0.1566823163731955
1760107162500915200,12.115915283203124,0.33658933139145375,-0.3363637059420347,-0.1879067085352726
1760107162510980400,12.12598046875,0.39893443614542484,-0.3429302248507738,-0.14545197037188334
1760107162521046500,12.136046630859376,0.4354477650284767,-0.35225042638182635,-0.08165105905272066
1760107162531111400,12.146111328125,0.4445885183393955,-0.386727573262155,-0.08461570841143838
1760107162541176300,12.15617626953125,0.3878028012782335,-0.4082210276678204,-0.18992414930490775
1760107162551242200,12.1662421875,0.27852526495754715,-0.42617783237993717,-0.33516711656861004
1760107162561307400,12.176307373046875,0.2091203048199415,-0.43722383479028937,-0.4135013061583042
1760107162571373600,12.18637353515625,0.061655953446030615,-0.40733869187533855,-0.48230201679244633
1760107162581438200,12.196438232421874,-0.16137421878278255,-0.37072540974915025,-0.47007692413274194
1760107162591504400,12.20650439453125,-0.5774778163939714,-0.28043080631792544,-0.39588509504478425
1760107162601569500,12.216569580078126,-1.0424556272894143,-0.09497779281139374,-0.3384624683195725
1760107162611634400,12.226634521484375,-1.4346002571642398,0.05278583377003669,-0.24347903121868147
1760107162621700400,12.236700439453125,-1.7917378710657357,0.11187398255467414,-0.11189432208980434
1760107162631765200,12.24676513671875,-1.7514350867718458,0.08070026113390923,0.014033284867630572
1760107162641831400,12.25683154296875,-1.3204606677651405,-0.023847616316378117,0.17707420274512842
1760107162651896600,12.266896484375,-0.6731535283416509,-0.14942425327003,0.31382969297487284
1760107162661962200,12.276962158203125,-0.1211304711997509,-0.2473559274509549,0.4417017839219421
1760107162672027400,12.28702734375,0.20095278045535087,-0.26037732158750293,0.4335730206651613
1760107162682092500,12.297092529296876,0.30818098303079605,-0.2569786190599203,0.3796553333209827
1760107162692158500,12.307158447265625,0.25772154638171196,-0.2353676757544279,0.22435999606046825
1760107162702223400,12.317223388671875,0.11338555616140365,-0.16908523155152796,0.03413373113698326
1760107162712289300,12.327289306640624,-0.05995908640027046,-0.029245091445744036,-0.20820395716000348
1760107162722354400,12.3373544921875,-0.3225958773523569,0.1640600968658924,-0.42054223764576015
1760107162732420400,12.34742041015625,-0.6125777713477611,0.32177140922695396,-0.550461031989567
1760107162742485200,12.3574853515625,-0.98800565969944,0.5012213829264045,-0.4588370431181043
1760107162752550400,12.36755029296875,-1.428159994983673,0.8127084217652678,-0.345866095639579
1760107162762616300,12.3776162109375,-1.7379431525141,1.0652420441150665,-0.3195330922482535
1760107162772681500,12.387681396484375,-1.8037322602421044,1.1477405868425965,-0.3685545685160905
1760107162782747400,12.397747314453126,-1.5548095218658446,1.0360302704170345,-0.2951115850340575
1760107162792812300,12.407812255859374,-1.0545850410223006,0.8233239238038659,-0.09425674852784723
1760107162802878500,12.41787841796875,-0.5174164386630058,0.648382367439568,0.18026276965336874
1760107162812943400,12.427943359375,-0.15249182414710521,0.5529562463387847,0.3017766506801359
1760107162823008300,12.43800830078125,0.025226795715093613,0.5194511593610048,0.35985428898166866
1760107162833074400,12.448074462890625,0.053638066685199735,0.5278086533397436,0.3607659239338711
1760107162843139300,12.458139404296874,0.04039163162112236,0.5544938311696053,0.27574652095921337
1760107162853205500,12.46820556640625,0.016299977415800092,0.5894917870536446,0.17176774863377212
1760107162863270400,12.4782705078125,-0.018012626552581786,0.640360973547399,0.04922452455926686
1760107162873336300,12.48833642578125,-0.009306173005700111,0.6338046837717294,-0.1201347381606698
1760107162883401500,12.4984013671875,0.058333531025052066,0.49894233207851646,-0.37098888299092647
1760107162893466400,12.50846630859375,0.07401800689101219,0.3208379277691245,-0.6372438644401729
1760107162903532500,12.518532470703125,0.014867314264178276,0.17888181842267512,-0.8331685876004398
