time,seconds_elapsed,z,y,x
1760107150443741700,0.05874169921875,-0.902740478515625,-0.3354339599609375,0.0354156494140625
1760107150453807900,0.068807861328125,-0.9197845458984375,-0.32562255859375,0.0303192138671875
1760107150463873000,0.078873046875,-0.954345703125,-0.3282318115234375,0.0177154541015625
1760107150473938700,0.088938720703125,-0.9798126220703125,-0.3343505859375,0.006683349609375
1760107150484003800,0.09900390625,-0.970001220703125,-0.3333587646484375,0.0035858154296875
1760107150494069800,0.10906982421875,-0.9426116943359375,-0.3375244140625,0.0085296630859375
1760107150504135000,0.119135009765625,-0.909423828125,-0.344970703125,0.0259552001953125
1760107150514200600,0.12920068359375,-0.8753814697265625,-0.34429931640625,0.041656494140625
1760107150524265700,0.139265625,-0.875213623046875,-0.34869384765625,0.0590057373046875
1760107150534332000,0.149331787109375,-0.8954620361328125,-0.3553924560546875,0.062774658203125
1760107150544396800,0.159396728515625,-0.9095458984375,-0.35211181640625,0.0481109619140625
1760107150554463000,0.169462890625,-0.91851806640625,-0.35009765625,0.029541015625
1760107150564527900,0.17952783203125,-0.9339752197265625,-0.3530120849609375,0.00396728515625
1760107150574593800,0.18959375,-0.952972412109375,-0.353790283203125,-0.023895263671875
1760107150584659000,0.199658935546875,-0.959625244140625,-0.33978271484375,-0.0390777587890625
1760107150594724900,0.209724853515625,-0.969512939453125,-0.3195648193359375,-0.0406646728515625
1760107150604789800,0.219789794921875,-0.9873504638671875,-0.3021087646484375,-0.0317230224609375
1760107150614855700,0.229855712890625,-1.0080718994140625,-0.2979888916015625,-0.0225372314453125
1760107150624920800,0.2399208984375,-1.029144287109375,-0.3063507080078125,-0.015838623046875
1760107150634986800,0.24998681640625,-1.047149658203125,-0.3167572021484375,-0.0139617919921875
1760107150645051600,0.2600517578125,-1.0532379150390625,-0.317840576171875,-0.0157928466796875
1760107150655117800,0.270117919921875,-1.0390777587890625,-0.3073883056640625,-0.0138702392578125
1760107150665182700,0.2801826171875,-1.018585205078125,-0.3009185791015625,-0.008941650390625
1760107150675249000,0.290248779296875,-1.0011444091796875,-0.3083038330078125,-0.0006561279296875
1760107150685313800,0.300313720703125,-0.984588623046875,-0.321533203125,0.000579833984375
1760107150695379700,0.310379638671875,-0.9652557373046875,-0.33477783203125,-0.0140533447265625
1760107150705444900,0.32044482421875,-0.949981689453125,-0.347137451171875,-0.02728271484375
1760107150715510800,0.3305107421875,-0.9354248046875,-0.3530731201171875,-0.0334930419921875
1760107150725576000,0.340575927734375,-0.9188232421875,-0.354400634765625,-0.034698486328125
1760107150735641600,0.3506416015625,-0.90740966796875,-0.3525848388671875,-0.0336761474609375
1760107150745706800,0.360706787109375,-0.89971923828125,-0.3521881103515625,-0.0326690673828125
1760107150755773000,0.37077294921875,-0.8989410400390625,-0.3587188720703125,-0.03955078125
1760107150765838800,0.3808388671875,-0.89703369140625,-0.3687744140625,-0.0468597412109375
1760107150775903700,0.39090380859375,-0.8985595703125,-0.3778228759765625,-0.0432891845703125
1760107150785969700,0.4009697265625,-0.8875732421875,-0.3749237060546875,-0.035430908203125
1760107150796034800,0.411034912109375,-0.864227294921875,-0.3486785888671875,-0.009552001953125
1760107150806100700,0.421100830078125,-0.8702545166015625,-0.3217010498046875,0.0279541015625
1760107150816166000,0.431165771484375,-0.908050537109375,-0.3126983642578125,0.0484466552734375
1760107150826231800,0.441231689453125,-0.951416015625,-0.30865478515625,0.0395355224609375
1760107150836296700,0.451296630859375,-0.988128662109375,-0.3067169189453125,0.0145263671875
1760107150846363000,0.46136279296875,-1.014404296875,-0.3125762939453125,-0.010467529296875
1760107150856428000,0.471427978515625,-1.0225830078125,-0.3297882080078125,-0.0365753173828125
1760107150866493700,0.48149365234375,-0.9970245361328125,-0.33819580078125,-0.0388946533203125
1760107150876558800,0.491558837890625,-0.95147705078125,-0.3179779052734375,-0.008148193359375
1760107150886624800,0.501624755859375,-0.9034271240234375,-0.28692626953125,0.02716064453125
1760107150896690000,0.51168994140625,-0.8918609619140625,-0.2770233154296875,0.0594482421875
1760107150906755800,0.521755859375,-0.925689697265625,-0.29400634765625,0.0568695068359375
1760107150916820700,0.53182080078125,-0.96820068359375,-0.3063201904296875,0.0206451416015625
1760107150926887000,0.541886962890625,-1.0102386474609375,-0.3187103271484375,-0.0183258056640625
1760107150936951800,0.551951904296875,-1.04541015625,-0.345458984375,-0.05999755859375
1760107150947018000,0.56201806640625,-1.0713958740234375,-0.372955322265625,-0.08642578125
1760107150957082600,0.57208251953125,-1.0436553955078125,-0.38177490234375,-0.0829620361328125
1760107150967148800,0.582148681640625,-0.9789581298828125,-0.3745880126953125,-0.0588531494140625
1760107150977214000,0.5922138671875,-0.9179534912109375,-0.3668212890625,-0.035614013671875
1760107150987280000,0.60227978515625,-0.87518310546875,-0.3615264892578125,-0.0272979736328125
1760107150997344800,0.6123447265625,-0.85772705078125,-0.3636932373046875,-0.02880859375
1760107151007410700,0.62241064453125,-0.8359222412109375,-0.3624267578125,-0.0258941650390625
1760107151017475800,0.632475830078125,-0.83056640625,-0.3699188232421875,-0.0377655029296875
1760107151027541800,0.642541748046875,-0.84588623046875,-0.3896484375,-0.0607147216796875
1760107151037606700,0.652606689453125,-0.880645751953125,-0.39617919921875,-0.065216064453125
1760107151047672800,0.6626728515625,-0.9196014404296875,-0.3866729736328125,-0.062591552734375
1760107151057737700,0.67273779296875,-0.95599365234375,-0.366241455078125,-0.0570068359375
1760107151067804000,0.682803955078125,-0.9784393310546875,-0.353302001953125,-0.052215576171875
1760107151077868800,0.692868896484375,-0.9919586181640625,-0.344970703125,-0.0460968017578125
1760107151087934700,0.702934814453125,-0.9952239990234375,-0.342193603515625,-0.040283203125
1760107151098000000,0.712999755859375,-0.998382568359375,-0.3455352783203125,-0.029998779296875
1760107151108065800,0.723065673828125,-0.991546630859375,-0.3416290283203125,-0.0169219970703125
1760107151118131000,0.733130859375,-0.9786376953125,-0.332733154296875,-0.0056915283203125
1760107151128196600,0.743196533203125,-0.9701385498046875,-0.328338623046875,0.003753662109375
1760107151138261800,0.75326171875,-0.97607421875,-0.3361053466796875,0.0043792724609375
1760107151148328000,0.763327880859375,-1.000457763671875,-0.3548126220703125,-0.0158843994140625
1760107151158392800,0.773392822265625,-1.0256500244140625,-0.3697662353515625,-0.0443572998046875
1760107151168458800,0.783458740234375,-1.045928955078125,-0.3793487548828125,-0.06048583984375
1760107151178524000,0.79352392578125,-1.065185546875,-0.3824462890625,-0.0640869140625
1760107151188589600,0.803589599609375,-1.093505859375,-0.3817596435546875,-0.0652618408203125
1760107151198654700,0.81365478515625,-1.10693359375,-0.3841400146484375,-0.05810546875
1760107151208720600,0.823720703125,-1.097259521484375,-0.3865509033203125,-0.038665771484375
1760107151218785800,0.833785888671875,-1.063018798828125,-0.378387451171875,-0.0145111083984375
1760107151228851700,0.843851806640625,-1.0469512939453125,-0.38134765625,0.00225830078125
1760107151238916600,0.85391650390625,-1.0242156982421875,-0.375823974609375,-0.0099639892578125
1760107151248982800,0.863982666015625,-1.0113372802734375,-0.372039794921875,-0.026153564453125
1760107151259047700,0.874047607421875,-1.01019287109375,-0.372528076171875,-0.032318115234375
1760107151269113900,0.88411376953125,-1.0118865966796875,-0.370391845703125,-0.0307464599609375
1760107151279178500,0.894178466796875,-1.0102691650390625,-0.357513427734375,-0.0238189697265625
1760107151289244700,0.90424462890625,-1.005462646484375,-0.333770751953125,-0.018218994140625
1760107151299309800,0.914309814453125,-0.9907379150390625,-0.308441162109375,-0.01165771484375
1760107151309375700,0.924375732421875,-0.9812164306640625,-0.2892608642578125,-0.0076751708984375
1760107151319440600,0.934440673828125,-1.001068115234375,-0.2733306884765625,-0.0021209716796875
1760107151329506600,0.944506591796875,-1.0432891845703125,-0.2610931396484375,0.0095977783203125
1760107151339571700,0.95457177734375,-1.07806396484375,-0.243133544921875,0.0152130126953125
1760107151349637600,0.9646376953125,-1.0771331787109375,-0.21807861328125,0.0184783935546875
1760107151359702500,0.97470263671875,-1.049102783203125,-0.1967926025390625,0.024017333984375
1760107151369768700,0.984768798828125,-0.99713134765625,-0.1825714111328125,0.0398101806640625
1760107151379833600,0.99483349609375,-0.9326629638671875,-0.1802825927734375,0.0572967529296875
1760107151389899800,1.004899658203125,-0.8813629150390625,-0.1937103271484375,0.07073974609375
1760107151399964700,1.014964599609375,-0.8466033935546875,-0.211822509765625,0.072784423828125
1760107151410030600,1.025030517578125,-0.840362548828125,-0.2249603271484375,0.0708465576171875
1760107151420095700,1.035095703125,-0.861175537109375,-0.2359771728515625,0.064483642578125
1760107151430161700,1.04516162109375,-0.8929595947265625,-0.2418060302734375,0.056976318359375
1760107151440226800,1.055226806640625,-0.91693115234375,-0.2349395751953125,0.0507965087890625
1760107151450292500,1.06529248046875,-0.9308013916015625,-0.2304229736328125,0.0448455810546875
1760107151460357600,1.075357666015625,-0.935394287109375,-0.236419677734375,0.037872314453125
1760107151470423800,1.085423828125,-0.9343719482421875,-0.24664306640625,0.027069091796875
1760107151480488700,1.09548876953125,-0.92596435546875,-0.2524871826171875,0.02301025390625
1760107151490554600,1.1055546875,-0.92218017578125,-0.2545318603515625,0.0252685546875
1760107151500619800,1.115619873046875,-0.91888427734375,-0.2516021728515625,0.0204315185546875
1760107151510685700,1.125685791015625,-0.919464111328125,-0.2534332275390625,0.0071563720703125
1760107151520750800,1.135750732421875,-0.9317169189453125,-0.2576751708984375,0.0098724365234375
1760107151530816800,1.145816650390625,-0.94122314453125,-0.2569732666015625,0.022308349609375
1760107151540881700,1.155881591796875,-0.9468994140625,-0.2562713623046875,0.023773193359375
1760107151550947600,1.165947509765625,-0.9510650634765625,-0.257965087890625,0.0204925537109375
1760107151561012700,1.1760126953125,-0.95440673828125,-0.263580322265625,0.015533447265625
1760107151571078700,1.18607861328125,-0.95703125,-0.2745819091796875,0.0108489990234375
1760107151581143600,1.1961435546875,-0.9562225341796875,-0.2856903076171875,0.0069122314453125
1760107151591209700,1.206209716796875,-0.9474334716796875,-0.291473388671875,0.0050811767578125
1760107151601274600,1.216274658203125,-0.9367828369140625,-0.293914794921875,0.0116424560546875
1760107151611340800,1.2263408203125,-0.926055908203125,-0.2929534912109375,0.0244293212890625
1760107151621405700,1.23640576171875,-0.9208221435546875,-0.2867279052734375,0.0409393310546875
1760107151631471600,1.2464716796875,-0.92120361328125,-0.2794342041015625,0.049530029296875
1760107151641536800,1.256536865234375,-0.9191436767578125,-0.2801666259765625,0.043609619140625
1760107151651602700,1.266602783203125,-0.91705322265625,-0.2938232421875,0.029022216796875
1760107151661667600,1.27666748046875,-0.9123992919921875,-0.3163299560546875,0.01031494140625
1760107151671733500,1.2867333984375,-0.9054718017578125,-0.332550048828125,-0.0059814453125
1760107151681798700,1.296798583984375,-0.89752197265625,-0.3413848876953125,-0.011993408203125
1760107151691864800,1.30686474609375,-0.8896026611328125,-0.3429718017578125,-0.011138916015625
1760107151701929500,1.316929443359375,-0.8831024169921875,-0.340301513671875,-0.00830078125
1760107151711995600,1.32699560546875,-0.878875732421875,-0.3408050537109375,0.000885009765625
1760107151722060800,1.337060791015625,-0.876129150390625,-0.344940185546875,0.0062713623046875
1760107151732126700,1.347126708984375,-0.878204345703125,-0.3547210693359375,0.008697509765625
1760107151742191900,1.35719189453125,-0.882965087890625,-0.36236572265625,0.01116943359375
1760107151752257500,1.367257568359375,-0.8877716064453125,-0.3669586181640625,0.0087432861328125
1760107151762322700,1.37732275390625,-0.9007568359375,-0.36907958984375,-0.0013275146484375
1760107151772388600,1.387388671875,-0.9276580810546875,-0.36883544921875,-0.013641357421875
1760107151782453800,1.397453857421875,-0.9560089111328125,-0.3687286376953125,-0.0188751220703125
1760107151792519700,1.407519775390625,-0.9781036376953125,-0.3629302978515625,-0.017333984375
1760107151802584600,1.41758447265625,-0.987548828125,-0.3533782958984375,-0.0174102783203125
1760107151812650800,1.427650634765625,-0.9910430908203125,-0.34393310546875,-0.0154876708984375
1760107151822715600,1.437715576171875,-0.99658203125,-0.3397064208984375,-0.00994873046875
1760107151832781800,1.44778173828125,-0.9988861083984375,-0.3391876220703125,-0.0052032470703125
1760107151842846700,1.4578466796875,-0.9967498779296875,-0.33758544921875,-0.0080108642578125
1760107151852912600,1.46791259765625,-0.9904022216796875,-0.3396148681640625,-0.014678955078125
1760107151862977800,1.477977783203125,-0.9832611083984375,-0.3457794189453125,-0.023651123046875
1760107151873043700,1.488043701171875,-0.9753265380859375,-0.353607177734375,-0.0283660888671875
1760107151883108600,1.498108642578125,-0.9694671630859375,-0.3595733642578125,-0.0232696533203125
1760107151893174500,1.508174560546875,-0.974517822265625,-0.357696533203125,-0.007354736328125
1760107151903239700,1.51823974609375,-0.9922637939453125,-0.3521881103515625,0.0137176513671875
1760107151913305900,1.528305908203125,-1.010009765625,-0.347503662109375,0.0301971435546875
1760107151923370500,1.53837060546875,-1.0213623046875,-0.341705322265625,0.0412139892578125
1760107151933436700,1.548436767578125,-1.0167694091796875,-0.336395263671875,0.0428314208984375
1760107151943501800,1.558501708984375,-1.0059967041015625,-0.3359222412109375,0.0409088134765625
1760107151953567700,1.568567626953125,-0.9967041015625,-0.33551025390625,0.028167724609375
1760107151963632600,1.578632568359375,-0.9940338134765625,-0.322418212890625,0.0062103271484375
1760107151973698600,1.588698486328125,-0.9957427978515625,-0.2975006103515625,-0.017425537109375
1760107151983763700,1.598763671875,-1.012847900390625,-0.26953125,-0.028472900390625
1760107151993829600,1.60882958984375,-1.0526123046875,-0.24945068359375,-0.026611328125
1760107152003894500,1.61889453125,-1.0967254638671875,-0.237945556640625,-0.02020263671875
1760107152013960700,1.628960693359375,-1.1304779052734375,-0.2293548583984375,-0.021759033203125
1760107152024025600,1.639025634765625,-1.150146484375,-0.2180328369140625,-0.02777099609375
1760107152034091800,1.649091796875,-1.1606292724609375,-0.20550537109375,-0.0194549560546875
1760107152044156700,1.65915673828125,-1.1693572998046875,-0.1982269287109375,-0.0044708251953125
1760107152054222600,1.66922265625,-1.1711883544921875,-0.2008819580078125,0.0098114013671875
1760107152064287700,1.679287841796875,-1.1563568115234375,-0.206085205078125,0.0129241943359375
1760107152074353700,1.689353759765625,-1.1233978271484375,-0.2098388671875,0.005096435546875
1760107152084418800,1.699418701171875,-1.078704833984375,-0.2129058837890625,-0.0079345703125
1760107152094484500,1.709484375,-1.0323333740234375,-0.2195892333984375,-0.015655517578125
1760107152104549600,1.719549560546875,-0.9832000732421875,-0.2256011962890625,-0.0181427001953125
1760107152114615600,1.729615478515625,-0.94036865234375,-0.2313995361328125,-0.0162506103515625
1760107152124680700,1.7396806640625,-0.907806396484375,-0.23504638671875,-0.020660400390625
1760107152134747000,1.749746826171875,-0.8908538818359375,-0.2352294921875,-0.0298004150390625
1760107152144811500,1.7598115234375,-0.890899658203125,-0.2407073974609375,-0.0341339111328125
1760107152154877700,1.769877685546875,-0.902435302734375,-0.2469329833984375,-0.0436859130859375
1760107152164942800,1.77994287109375,-0.909881591796875,-0.2478485107421875,-0.05621337890625
1760107152175008800,1.7900087890625,-0.906890869140625,-0.249786376953125,-0.0653533935546875
1760107152185073700,1.80007373046875,-0.904052734375,-0.2567138671875,-0.0686798095703125
1760107152195139300,1.810139404296875,-0.9030609130859375,-0.2642364501953125,-0.066925048828125
1760107152205204500,1.82020458984375,-0.9069671630859375,-0.269287109375,-0.0598297119140625
1760107152215270400,1.8302705078125,-0.9194488525390625,-0.2707672119140625,-0.0574798583984375
1760107152225335600,1.84033544921875,-0.9369354248046875,-0.271636962890625,-0.0506591796875
1760107152235401700,1.850401611328125,-0.9541015625,-0.2670745849609375,-0.03033447265625
1760107152245466400,1.86046630859375,-0.96112060546875,-0.2544097900390625,-0.0062255859375
1760107152255532500,1.870532470703125,-0.9599761962890625,-0.244293212890625,0.01739501953125
1760107152265597700,1.88059765625,-0.9553985595703125,-0.2388916015625,0.03472900390625
1760107152275663600,1.89066357421875,-0.952789306640625,-0.240753173828125,0.04205322265625
1760107152285728500,1.900728515625,-0.94903564453125,-0.2486419677734375,0.0409393310546875
1760107152295794400,1.91079443359375,-0.9437713623046875,-0.2593536376953125,0.0295867919921875
1760107152305859600,1.920859619140625,-0.9351043701171875,-0.269989013671875,0.014892578125
1760107152315925500,1.930925537109375,-0.92486572265625,-0.2801055908203125,0.00225830078125
1760107152325990400,1.940990478515625,-0.91558837890625,-0.287200927734375,-0.007171630859375
1760107152336056600,1.951056640625,-0.90875244140625,-0.293670654296875,-0.0150146484375
1760107152346121500,1.96112158203125,-0.9051361083984375,-0.3010406494140625,-0.0188751220703125
1760107152356187600,1.971187744140625,-0.9023590087890625,-0.30804443359375,-0.02752685546875
1760107152366252500,1.98125244140625,-0.90240478515625,-0.3179931640625,-0.0435028076171875
1760107152376318500,1.991318359375,-0.902008056640625,-0.3296051025390625,-0.054779052734375
1760107152386383600,2.001383544921875,-0.895599365234375,-0.334991455078125,-0.053680419921875
1760107152396449500,2.011449462890625,-0.8814849853515625,-0.337493896484375,-0.0427703857421875
1760107152406514400,2.021514404296875,-0.8636627197265625,-0.338470458984375,-0.0284881591796875
1760107152416579600,2.03157958984375,-0.8438873291015625,-0.34405517578125,-0.015625
1760107152426645500,2.0416455078125,-0.826751708984375,-0.3501129150390625,-0.0067291259765625
1760107152436710700,2.051710693359375,-0.8174285888671875,-0.3576812744140625,-0.000640869140625
1760107152446776600,2.061776611328125,-0.8198394775390625,-0.364288330078125,-0.001068115234375
1760107152456842500,2.071842529296875,-0.831085205078125,-0.3691558837890625,-0.0047149658203125
1760107152466907400,2.081907470703125,-0.8481903076171875,-0.37469482421875,-0.0102691650390625
1760107152476972500,2.09197265625,-0.8704376220703125,-0.3833465576171875,-0.014678955078125
1760107152487038700,2.102038818359375,-0.8905029296875,-0.3881072998046875,-0.0149078369140625
1760107152497103400,2.112103271484375,-0.9067840576171875,-0.386993408203125,-0.0092620849609375
1760107152507169500,2.12216943359375,-0.9207611083984375,-0.37896728515625,0.0007476806640625
1760107152517234700,2.132234619140625,-0.9324188232421875,-0.37152099609375,0.00238037109375
1760107152527300600,2.142300537109375,-0.9507293701171875,-0.3693695068359375,0.000823974609375
1760107152537365500,2.152365478515625,-0.975799560546875,-0.374420166015625,-0.001983642578125
1760107152547431400,2.162431396484375,-0.995025634765625,-0.3776397705078125,-0.0020599365234375
1760107152557496600,2.17249658203125,-1.0168304443359375,-0.3759002685546875,-0.002227783203125
1760107152567562500,2.1825625,-1.0484466552734375,-0.3749847412109375,-0.00115966796875
1760107152577627400,2.19262744140625,-1.0798797607421875,-0.3742218017578125,0.0074615478515625
1760107152587693600,2.202693603515625,-1.097198486328125,-0.36932373046875,0.01812744140625
1760107152597758500,2.212758544921875,-1.0977630615234375,-0.3564605712890625,0.024810791015625
1760107152607824600,2.22282470703125,-1.091796875,-0.3482513427734375,0.0340728759765625
1760107152617889300,2.23288916015625,-1.0803680419921875,-0.355194091796875,0.0437164306640625
1760107152627955500,2.24295556640625,-1.0682220458984375,-0.3728179931640625,0.0560150146484375
1760107152638020600,2.2530205078125,-1.0535736083984375,-0.394134521484375,0.0543670654296875
1760107152648086500,2.26308642578125,-1.03936767578125,-0.4044952392578125,0.0429534912109375
1760107152658151700,2.273151611328125,-1.02947998046875,-0.4098663330078125,0.034332275390625
1760107152668217300,2.28321728515625,-1.023284912109375,-0.409759521484375,0.04620361328125
1760107152678282500,2.293282470703125,-1.0230255126953125,-0.3973236083984375,0.0645599365234375
1760107152688348400,2.303348388671875,-1.023101806640625,-0.3697052001953125,0.076873779296875
1760107152698413600,2.31341357421875,-1.0238494873046875,-0.3396148681640625,0.0819091796875
1760107152708479500,2.3234794921875,-1.0224609375,-0.3187103271484375,0.0831756591796875
1760107152718544400,2.33354443359375,-1.0131378173828125,-0.30596923828125,0.087738037109375
1760107152728610600,2.343610595703125,-0.99664306640625,-0.2987823486328125,0.0924835205078125
1760107152738675700,2.35367578125,-0.989990234375,-0.29425048828125,0.0860443115234375
1760107152748741600,2.36374169921875,-1.00811767578125,-0.2916107177734375,0.067962646484375
1760107152758806500,2.373806640625,-1.040618896484375,-0.291351318359375,0.0510711669921875
1760107152768872400,2.38387255859375,-1.0545806884765625,-0.2879486083984375,0.0465545654296875
1760107152778937600,2.3939375,-1.0334014892578125,-0.2777862548828125,0.0599517822265625
1760107152789003500,2.40400341796875,-0.981964111328125,-0.260345458984375,0.0801239013671875
1760107152799068400,2.414068359375,-0.9250946044921875,-0.2500152587890625,0.0969696044921875
1760107152809134600,2.424134521484375,-0.87945556640625,-0.246124267578125,0.1082916259765625
1760107152819199500,2.434199462890625,-0.8530426025390625,-0.247344970703125,0.1094512939453125
1760107152829265700,2.444265625,-0.85052490234375,-0.2555694580078125,0.098052978515625
1760107152839330600,2.45433056640625,-0.86688232421875,-0.271759033203125,0.0774383544921875
1760107152849396500,2.464396484375,-0.880950927734375,-0.2852630615234375,0.0603179931640625
1760107152859461600,2.474461669921875,-0.886474609375,-0.289276123046875,0.054229736328125
1760107152869527600,2.484527587890625,-0.8916473388671875,-0.28485107421875,0.0584869384765625
1760107152879592400,2.494592529296875,-0.9003448486328125,-0.267364501953125,0.06072998046875
1760107152889658400,2.504658447265625,-0.918487548828125,-0.246795654296875,0.0664520263671875
1760107152899723500,2.5147236328125,-0.9366455078125,-0.2346343994140625,0.0687255859375
1760107152909789400,2.52478955078125,-0.9479522705078125,-0.237823486328125,0.065704345703125
1760107152919854300,2.534854248046875,-0.95599365234375,-0.2505950927734375,0.05975341796875
1760107152929920500,2.54492041015625,-0.96124267578125,-0.26666259765625,0.0469207763671875
1760107152939985400,2.5549853515625,-0.96331787109375,-0.2811279296875,0.03216552734375
1760107152950051600,2.565051513671875,-0.9635162353515625,-0.29052734375,0.0229644775390625
1760107152960116700,2.57511669921875,-0.9573516845703125,-0.292510986328125,0.0248565673828125
1760107152970182400,2.585182373046875,-0.942108154296875,-0.291259765625,0.033538818359375
1760107152980247600,2.59524755859375,-0.9296875,-0.2912139892578125,0.0308837890625
1760107152990313500,2.6053134765625,-0.916107177734375,-0.296051025390625,0.0208892822265625
1760107153000378600,2.615378662109375,-0.90472412109375,-0.3079681396484375,0.01800537109375
1760107153010444300,2.6254443359375,-0.898590087890625,-0.319244384765625,0.0132904052734375
1760107153020509400,2.635509521484375,-0.8908538818359375,-0.3265533447265625,0.0078277587890625
1760107153030575600,2.64557568359375,-0.8814697265625,-0.32550048828125,0.0066070556640625
1760107153040640500,2.655640625,-0.87408447265625,-0.324127197265625,0.010955810546875
1760107153050706700,2.665706787109375,-0.8679962158203125,-0.32623291015625,0.0207977294921875
1760107153060771600,2.675771484375,-0.8607635498046875,-0.329315185546875,0.0297088623046875
1760107153070837500,2.68583740234375,-0.851898193359375,-0.3348236083984375,0.0285797119140625
1760107153080902700,2.695902587890625,-0.84503173828125,-0.3418731689453125,0.02874755859375
1760107153090968600,2.705968505859375,-0.83642578125,-0.3496551513671875,0.0267333984375
1760107153101033500,2.716033447265625,-0.8279571533203125,-0.3571624755859375,0.01678466796875
1760107153111098600,2.7260986328125,-0.8339385986328125,-0.3677215576171875,0.0086822509765625
1760107153121164500,2.73616455078125,-0.8563690185546875,-0.3727569580078125,0.0026397705078125
1760107153131229400,2.7462294921875,-0.878997802734375,-0.370452880859375,-0.0015869140625
1760107153141295400,2.75629541015625,-0.8911895751953125,-0.363525390625,-0.0001983642578125
1760107153151361500,2.766361572265625,-0.8873291015625,-0.35772705078125,0.00830078125
1760107153161426400,2.776426513671875,-0.8799285888671875,-0.357940673828125,0.01806640625
1760107153171491600,2.78649169921875,-0.8832244873046875,-0.3692626953125,0.0174407958984375
1760107153181557500,2.7965576171875,-0.9085845947265625,-0.3848876953125,0.0002899169921875
1760107153191622100,2.8066220703125,-0.9538116455078125,-0.394622802734375,-0.019439697265625
1760107153201688000,2.81668798828125,-1.0106658935546875,-0.3935546875,-0.042327880859375
1760107153211753200,2.826753173828125,-1.0794219970703125,-0.389404296875,-0.056427001953125
1760107153221819100,2.836819091796875,-1.136810302734375,-0.3779296875,-0.0568695068359375
1760107153231884300,2.84688427734375,-1.1630859375,-0.3581695556640625,-0.0499267578125
1760107153241950000,2.856949951171875,-1.153411865234375,-0.3432159423828125,-0.03826904296875
1760107153252015000,2.86701513671875,-1.1203155517578125,-0.33819580078125,-0.02593994140625
1760107153262081000,2.8770810546875,-1.086090087890625,-0.342559814453125,-0.007293701171875
1760107153272146200,2.887146240234375,-1.064239501953125,-0.3505859375,0.0083770751953125
1760107153282212400,2.89721240234375,-1.0482330322265625,-0.357147216796875,0.0108795166015625
1760107153292277000,2.907277099609375,-1.037628173828125,-0.3625946044921875,0.005615234375
1760107153302343200,2.91734326171875,-1.0192108154296875,-0.367767333984375,0.0037994384765625
1760107153312408300,2.927408203125,-1.001129150390625,-0.37103271484375,0.0008392333984375
1760107153322474200,2.93747412109375,-0.987274169921875,-0.3735809326171875,-0.015899658203125
1760107153332539100,2.9475390625,-0.9811553955078125,-0.3740234375,-0.049072265625
1760107153342605000,2.95760498046875,-0.9757232666015625,-0.37652587890625,-0.092803955078125
1760107153352670200,2.967670166015625,-0.9752197265625,-0.381744384765625,-0.116058349609375
1760107153362736000,2.977736083984375,-0.972259521484375,-0.3848724365234375,-0.1182861328125
1760107153372801000,2.987801025390625,-0.9567718505859375,-0.3759307861328125,-0.11602783203125
1760107153382867200,2.9978671875,-0.947723388671875,-0.34564208984375,-0.1068115234375
1760107153392932000,3.00793212890625,-0.94775390625,-0.3050994873046875,-0.0841522216796875
1760107153402998300,3.017998291015625,-0.9639129638671875,-0.2679901123046875,-0.0428009033203125
1760107153413063200,3.028063232421875,-0.992462158203125,-0.243377685546875,0.0062408447265625
1760107153423129000,3.038129150390625,-1.02166748046875,-0.231109619140625,0.054351806640625
1760107153433194200,3.0481943359375,-1.0475006103515625,-0.222747802734375,0.084320068359375
1760107153443260200,3.05826025390625,-1.0605316162109375,-0.212066650390625,0.08721923828125
1760107153453325000,3.068324951171875,-1.06298828125,-0.205322265625,0.08270263671875
1760107153463391000,3.078390869140625,-1.0589447021484375,-0.20721435546875,0.084625244140625
1760107153473456000,3.0884560546875,-1.0465240478515625,-0.2170562744140625,0.0830078125
1760107153483522300,3.098522216796875,-1.019134521484375,-0.2357025146484375,0.062164306640625
1760107153493587200,3.108587158203125,-0.9774627685546875,-0.26129150390625,0.0276641845703125
1760107153503653000,3.118653076171875,-0.9232940673828125,-0.2851715087890625,-0.0048065185546875
1760107153513718000,3.128718017578125,-0.867950439453125,-0.3055419921875,-0.02227783203125
1760107153523784200,3.1387841796875,-0.81817626953125,-0.32940673828125,-0.027618408203125
1760107153533849300,3.148849365234375,-0.785919189453125,-0.3494110107421875,-0.0291595458984375
1760107153543915000,3.1589150390625,-0.7841033935546875,-0.359527587890625,-0.0319976806640625
1760107153553980200,3.168980224609375,-0.8294219970703125,-0.3610687255859375,-0.0342559814453125
1760107153564046000,3.179046142578125,-0.9082183837890625,-0.3479461669921875,-0.0455169677734375
1760107153574111200,3.189111328125,-0.980133056640625,-0.3300628662109375,-0.0617828369140625
1760107153584177200,3.19917724609375,-1.0315704345703125,-0.3200531005859375,-0.0734710693359375
1760107153594242000,3.209241943359375,-1.05755615234375,-0.319976806640625,-0.078948974609375
1760107153604307200,3.21930712890625,-1.0567626953125,-0.323944091796875,-0.077392578125
1760107153614373000,3.229373046875,-1.0253143310546875,-0.327056884765625,-0.0688323974609375
1760107153624438000,3.23943798828125,-0.9712371826171875,-0.3332061767578125,-0.05413818359375
1760107153634504200,3.249504150390625,-0.911407470703125,-0.340240478515625,-0.0357666015625
1760107153644569000,3.259569091796875,-0.856109619140625,-0.3484649658203125,-0.0216064453125
1760107153654635300,3.26963525390625,-0.8125,-0.3523101806640625,-0.0031280517578125
1760107153664700000,3.279699951171875,-0.7867431640625,-0.3526153564453125,0.0192413330078125
1760107153674766000,3.28976611328125,-0.780120849609375,-0.3546295166015625,0.03125
1760107153684831200,3.299831298828125,-0.7950897216796875,-0.3594818115234375,0.02972412109375
1760107153694897200,3.309897216796875,-0.821014404296875,-0.36865234375,0.0170440673828125
1760107153704962300,3.31996240234375,-0.846649169921875,-0.3824005126953125,-0.010284423828125
1760107153715028000,3.330028076171875,-0.8675689697265625,-0.3977203369140625,-0.036285400390625
1760107153725093000,3.340093017578125,-0.878875732421875,-0.4104156494140625,-0.0586700439453125
1760107153735159000,3.350158935546875,-0.88323974609375,-0.418548583984375,-0.074981689453125
1760107153745224200,3.36022412109375,-0.8839111328125,-0.42828369140625,-0.0861968994140625
1760107153755290000,3.3702900390625,-0.8820953369140625,-0.4377593994140625,-0.085693359375
1760107153765355000,3.38035498046875,-0.8798828125,-0.434326171875,-0.0714111328125
1760107153775421200,3.390421142578125,-0.88714599609375,-0.426849365234375,-0.0522918701171875
1760107153785486300,3.400486328125,-0.9093170166015625,-0.417938232421875,-0.034027099609375
1760107153795552300,3.41055224609375,-0.93896484375,-0.405731201171875,-0.0241851806640625
1760107153805617200,3.4206171875,-0.970458984375,-0.398284912109375,-0.0224609375
1760107153815683000,3.43068310546875,-0.9994659423828125,-0.4031524658203125,-0.02203369140625
1760107153825748200,3.440748291015625,-1.0191650390625,-0.4127655029296875,-0.0233917236328125
1760107153835814100,3.450814208984375,-1.025970458984375,-0.4193115234375,-0.0302581787109375
1760107153845879000,3.460879150390625,-1.0221710205078125,-0.42279052734375,-0.0409393310546875
1760107153855945200,3.4709453125,-1.009765625,-0.4239959716796875,-0.0432891845703125
1760107153866010000,3.481010009765625,-0.98846435546875,-0.4235382080078125,-0.034149169921875
1760107153876076300,3.491076171875,-0.9835662841796875,-0.42169189453125,-0.0157928466796875
1760107153886141200,3.50114111328125,-0.99755859375,-0.41357421875,0.000579833984375
1760107153896207000,3.51120703125,-1.0180816650390625,-0.4013519287109375,0.00762939453125
1760107153906272300,3.521272216796875,-1.0370025634765625,-0.3871612548828125,0.0121307373046875
1760107153916338200,3.531338134765625,-1.046234130859375,-0.372894287109375,0.011016845703125
1760107153926403000,3.541403076171875,-1.0487060546875,-0.3618927001953125,0.0086517333984375
1760107153936469000,3.551468994140625,-1.05224609375,-0.36492919921875,0.0074920654296875
1760107153946534100,3.5615341796875,-1.061004638671875,-0.3856353759765625,0.0048370361328125
1760107153956600000,3.57160009765625,-1.0530548095703125,-0.40625,0.0059967041015625
1760107153966665000,3.5816650390625,-1.02197265625,-0.4146575927734375,0.0146636962890625
1760107153976731100,3.591731201171875,-0.976226806640625,-0.4163055419921875,0.042938232421875
1760107153986796000,3.601796142578125,-0.9255828857421875,-0.4211578369140625,0.0842742919921875
1760107153996861200,3.611861083984375,-0.8798370361328125,-0.43353271484375,0.1208343505859375
1760107154006927400,3.62192724609375,-0.8569793701171875,-0.4431304931640625,0.1286163330078125
1760107154016992000,3.631991943359375,-0.8625030517578125,-0.4419097900390625,0.108795166015625
1760107154027058200,3.64205810546875,-0.8959808349609375,-0.427734375,0.0721435546875
1760107154037123300,3.652123291015625,-0.9581146240234375,-0.405303955078125,0.0360870361328125
1760107154047189200,3.662189208984375,-1.0261383056640625,-0.3815765380859375,0.0123748779296875
1760107154057254100,3.672254150390625,-1.0763092041015625,-0.35589599609375,0.006500244140625
1760107154067320000,3.682320068359375,-1.0933380126953125,-0.3299713134765625,0.0020599365234375
1760107154077385200,3.69238525390625,-1.0777130126953125,-0.310943603515625,-0.0086212158203125
1760107154087451100,3.702451171875,-1.0449371337890625,-0.30072021484375,-0.012451171875
1760107154097516000,3.71251611328125,-1.004852294921875,-0.2992706298828125,0.0036163330078125
1760107154107582200,3.722582275390625,-0.9673309326171875,-0.2957000732421875,0.0343017578125
1760107154117647000,3.732647216796875,-0.9325714111328125,-0.280242919921875,0.060089111328125
1760107154127713300,3.74271337890625,-0.9020538330078125,-0.2630615234375,0.0780487060546875
1760107154137778000,3.75277783203125,-0.8776397705078125,-0.2555389404296875,0.09393310546875
1760107154147844000,3.762843994140625,-0.8619232177734375,-0.2583465576171875,0.1037139892578125
1760107154157909200,3.7729091796875,-0.852203369140625,-0.2716827392578125,0.09796142578125
1760107154167975200,3.78297509765625,-0.847198486328125,-0.288848876953125,0.077911376953125
1760107154178040000,3.7930400390625,-0.8420257568359375,-0.303466796875,0.0497283935546875
1760107154188106000,3.80310595703125,-0.84326171875,-0.3167724609375,0.0213470458984375
1760107154198171000,3.8131708984375,-0.8595123291015625,-0.3269805908203125,-0.007720947265625
1760107154208237000,3.823237060546875,-0.8863067626953125,-0.3315887451171875,-0.031982421875
1760107154218302000,3.833302001953125,-0.907196044921875,-0.32879638671875,-0.039398193359375
1760107154228368100,3.8433681640625,-0.9172210693359375,-0.3195648193359375,-0.02593994140625
1760107154238433000,3.85343310546875,-0.920989990234375,-0.3126068115234375,-0.00091552734375
1760107154248499000,3.8634990234375,-0.92169189453125,-0.304901123046875,0.022308349609375
1760107154258564000,3.873564208984375,-0.9283294677734375,-0.29852294921875,0.04376220703125
1760107154268630000,3.883630126953125,-0.9392242431640625,-0.292266845703125,0.057159423828125
1760107154278695200,3.893695068359375,-0.9469757080078125,-0.29168701171875,0.0510101318359375
1760107154288760800,3.9037607421875,-0.9467315673828125,-0.3052520751953125,0.031280517578125
1760107154298826000,3.913825927734375,-0.939849853515625,-0.3251495361328125,0.00347900390625
1760107154308891100,3.92389111328125,-0.922027587890625,-0.346527099609375,-0.0156097412109375
1760107154318957000,3.93395703125,-0.9084625244140625,-0.3610382080078125,-0.01416015625
1760107154329022000,3.94402197265625,-0.90142822265625,-0.3606414794921875,0.0001983642578125
1760107154339088000,3.954087890625,-0.8978271484375,-0.3505096435546875,0.01507568359375
1760107154349153000,3.964153076171875,-0.8888092041015625,-0.340087890625,0.0196533203125
1760107154359219200,3.97421923828125,-0.8715972900390625,-0.3354644775390625,0.020721435546875
1760107154369283800,3.984283935546875,-0.8584136962890625,-0.33123779296875,0.0266571044921875
1760107154379350000,3.99435009765625,-0.8521270751953125,-0.33392333984375,0.0299835205078125
1760107154389415000,4.004414794921875,-0.8551788330078125,-0.342681884765625,0.025390625
1760107154399481000,4.014481201171875,-0.8665008544921875,-0.3524017333984375,0.0159759521484375
1760107154409546000,4.0245458984375,-0.8741455078125,-0.359161376953125,-0.0057373046875
1760107154419612000,4.03461181640625,-0.8736572265625,-0.3703765869140625,-0.02874755859375
1760107154429677000,4.044677001953125,-0.86749267578125,-0.383758544921875,-0.0416717529296875
1760107154439743000,4.054742919921875,-0.8545074462890625,-0.39398193359375,-0.0381622314453125
1760107154449808100,4.06480810546875,-0.836578369140625,-0.393402099609375,-0.0220489501953125
1760107154459873800,4.074873779296875,-0.819244384765625,-0.383270263671875,-0.0048370361328125
1760107154469939000,4.08493896484375,-0.813751220703125,-0.37542724609375,0.0092010498046875
1760107154480005000,4.095005126953125,-0.813720703125,-0.3701019287109375,0.0204315185546875
1760107154490070000,4.105070068359375,-0.8305816650390625,-0.37310791015625,0.0249481201171875
1760107154500136000,4.115135986328125,-0.860626220703125,-0.37677001953125,0.0180511474609375
1760107154510201000,4.125201171875,-0.8989410400390625,-0.377410888671875,0.003662109375
1760107154520267000,4.13526708984375,-0.9454803466796875,-0.383819580078125,-0.010711669921875
1760107154530332200,4.145332275390625,-0.9922027587890625,-0.3867340087890625,-0.027252197265625
1760107154540398000,4.155398193359375,-1.0374298095703125,-0.38775634765625,-0.040130615234375
1760107154550463000,4.165462890625,-1.0664520263671875,-0.3882293701171875,-0.044281005859375
1760107154560529000,4.17552880859375,-1.0773773193359375,-0.3875579833984375,-0.04425048828125
1760107154570594000,4.185593994140625,-1.0780181884765625,-0.390594482421875,-0.0472869873046875
1760107154580659000,4.195658935546875,-1.0729217529296875,-0.396820068359375,-0.0461273193359375
1760107154590724900,4.205724853515625,-1.06268310546875,-0.40216064453125,-0.033355712890625
1760107154600790000,4.2157900390625,-1.052032470703125,-0.4044647216796875,-0.009765625
1760107154610856000,4.22585595703125,-1.0478363037109375,-0.4026031494140625,0.021240234375
1760107154620920800,4.2359208984375,-1.037689208984375,-0.3872833251953125,0.0485076904296875
1760107154630987000,4.245987060546875,-1.0308990478515625,-0.3763885498046875,0.0672607421875
1760107154641052000,4.256052001953125,-1.0279388427734375,-0.3807525634765625,0.0681915283203125
1760107154651118000,4.2661181640625,-1.0193634033203125,-0.3900299072265625,0.0503387451171875
1760107154661183200,4.276183349609375,-0.9962310791015625,-0.4017181396484375,0.017608642578125
1760107154671249000,4.286248779296875,-0.9695281982421875,-0.4079437255859375,-0.01678466796875
1760107154681314000,4.29631396484375,-0.948150634765625,-0.407958984375,-0.0433502197265625
1760107154691380000,4.3063798828125,-0.9309844970703125,-0.4049530029296875,-0.0562591552734375
1760107154701445000,4.316445068359375,-0.9277191162109375,-0.391204833984375,-0.05975341796875
1760107154711510800,4.3265107421875,-0.9326171875,-0.36920166015625,-0.047149658203125
1760107154721576000,4.336575927734375,-0.9539794921875,-0.3399810791015625,-0.0207366943359375
1760107154731642000,4.34664208984375,-0.986541748046875,-0.3072662353515625,0.0182952880859375
1760107154741707000,4.35670703125,-1.028564453125,-0.2808074951171875,0.0586090087890625
1760107154751773200,4.366773193359375,-1.0754852294921875,-0.263397216796875,0.08172607421875
1760107154761838000,4.376838134765625,-1.1140594482421875,-0.2497406005859375,0.092132568359375
1760107154771904000,4.386904052734375,-1.1305694580078125,-0.241851806640625,0.0951080322265625
1760107154781969200,4.39696923828125,-1.1178741455078125,-0.2404022216796875,0.0831146240234375
1760107154792035000,4.40703515625,-1.0828399658203125,-0.24359130859375,0.0624542236328125
1760107154802100000,4.417099853515625,-1.03839111328125,-0.2532958984375,0.04046630859375
1760107154812166000,4.427165771484375,-0.9874114990234375,-0.26446533203125,0.030731201171875
1760107154822231000,4.43723095703125,-0.9414520263671875,-0.269927978515625,0.0318603515625
1760107154832297000,4.447296875,-0.906829833984375,-0.2694244384765625,0.032623291015625
1760107154842361900,4.45736181640625,-0.881591796875,-0.2657470703125,0.0317230224609375
1760107154852427000,4.467427001953125,-0.862762451171875,-0.2654876708984375,0.0247650146484375
1760107154862493000,4.477492919921875,-0.855010986328125,-0.2722625732421875,0.0015716552734375
1760107154872558000,4.48755810546875,-0.8636627197265625,-0.28802490234375,-0.0340423583984375
1760107154882624000,4.4976240234375,-0.8873138427734375,-0.3101806640625,-0.070098876953125
1760107154892689000,4.50768896484375,-0.92413330078125,-0.328369140625,-0.0957794189453125
1760107154902755000,4.517755126953125,-0.96929931640625,-0.340362548828125,-0.112152099609375
1760107154912820200,4.5278203125,-1.0080413818359375,-0.3394012451171875,-0.116912841796875
1760107154922886000,4.537885986328125,-1.0267486572265625,-0.3280487060546875,-0.11297607421875
1760107154932951000,4.547950927734375,-1.0196685791015625,-0.3089141845703125,-0.0923004150390625
1760107154943017000,4.558016845703125,-0.998291015625,-0.2956695556640625,-0.0616455078125
1760107154953082000,4.56808203125,-0.96844482421875,-0.2920379638671875,-0.0332489013671875
1760107154963148000,4.57814794921875,-0.942779541015625,-0.294586181640625,-0.0251312255859375
1760107154973213000,4.588212890625,-0.9219818115234375,-0.299072265625,-0.0228271484375
1760107154983279000,4.598279052734375,-0.905517578125,-0.302764892578125,-0.01715087890625
1760107154993344000,4.608343994140625,-0.898284912109375,-0.3059539794921875,-0.019287109375
1760107155003410200,4.61841015625,-0.8991546630859375,-0.310546875,-0.02740478515625
1760107155013474800,4.628474853515625,-0.9004669189453125,-0.3203887939453125,-0.0357666015625
1760107155023541000,4.638541015625,-0.8954925537109375,-0.32861328125,-0.0400390625
1760107155033606100,4.648606201171875,-0.8867340087890625,-0.333709716796875,-0.043243408203125
1760107155043672000,4.658672119140625,-0.87908935546875,-0.3411712646484375,-0.0441436767578125
1760107155053737000,4.668737060546875,-0.864593505859375,-0.3477935791015625,-0.04339599609375
1760107155063803000,4.678802978515625,-0.8476715087890625,-0.3536834716796875,-0.0427093505859375
1760107155073868000,4.688867919921875,-0.8325958251953125,-0.356201171875,-0.0399932861328125
1760107155083934000,4.698933837890625,-0.8282470703125,-0.3596649169921875,-0.0385894775390625
1760107155093998800,4.708998779296875,-0.83465576171875,-0.3649444580078125,-0.043304443359375
1760107155104064000,4.71906396484375,-0.853363037109375,-0.3714141845703125,-0.042205810546875
1760107155114130000,4.7291298828125,-0.8805694580078125,-0.37127685546875,-0.03546142578125
1760107155124195000,4.739195068359375,-0.9060821533203125,-0.3659515380859375,-0.0279083251953125
1760107155134261200,4.74926123046875,-0.916534423828125,-0.3621826171875,-0.027801513671875
1760107155144326000,4.759325927734375,-0.91485595703125,-0.3639373779296875,-0.0326690673828125
1760107155154392000,4.76939208984375,-0.912384033203125,-0.37152099609375,-0.0323486328125
1760107155164457000,4.77945703125,-0.9153900146484375,-0.3782196044921875,-0.02349853515625
1760107155174523100,4.789523193359375,-0.914794921875,-0.3794097900390625,-0.01336669921875
1760107155184588500,4.799588623046875,-0.91619873046875,-0.38397216796875,-0.0087890625
1760107155194654500,4.809654541015625,-0.92535400390625,-0.3891448974609375,-0.009033203125
1760107155204719600,4.8197197265625,-0.9361724853515625,-0.3898468017578125,-0.0092926025390625
1760107155214785500,4.82978564453125,-0.9439544677734375,-0.3886260986328125,-0.007965087890625
1760107155224850400,4.839850341796875,-0.9527130126953125,-0.3878326416015625,-0.0087890625
1760107155234916400,4.849916259765625,-0.965362548828125,-0.38873291015625,-0.0086517333984375
1760107155244981500,4.8599814453125,-0.984710693359375,-0.38482666015625,-0.001373291015625
1760107155255047700,4.870047607421875,-1.0038604736328125,-0.3744964599609375,0.0111846923828125
1760107155265112300,4.8801123046875,-1.026580810546875,-0.365936279296875,0.02105712890625
1760107155275178500,4.890178466796875,-1.052337646484375,-0.3599395751953125,0.02978515625
1760107155285243400,4.900243408203125,-1.0802764892578125,-0.3520660400390625,0.0327911376953125
1760107155295309600,4.9103095703125,-1.1129913330078125,-0.35107421875,0.02532958984375
1760107155305374700,4.920374755859375,-1.1308135986328125,-0.3604583740234375,0.0242462158203125
1760107155315439400,4.930439453125,-1.121734619140625,-0.3712005615234375,0.0287628173828125
1760107155325505500,4.940505615234375,-1.0938873291015625,-0.3739013671875,0.045257568359375
1760107155335570700,4.95057080078125,-1.0515899658203125,-0.375030517578125,0.072601318359375
1760107155345636600,4.96063671875,-1.0074462890625,-0.3750762939453125,0.1037139892578125
1760107155355701500,4.970701416015625,-0.9658966064453125,-0.3672332763671875,0.1173095703125
1760107155365767400,4.980767333984375,-0.942596435546875,-0.3621673583984375,0.1082305908203125
1760107155375832600,4.99083251953125,-0.942230224609375,-0.3609771728515625,0.084259033203125
1760107155385898500,5.0008984375,-0.963653564453125,-0.358795166015625,0.04888916015625
1760107155395963400,5.01096337890625,-1.000885009765625,-0.3513031005859375,0.021331787109375
1760107155406029600,5.021029541015625,-1.038238525390625,-0.341766357421875,0.00640869140625
1760107155416094500,5.031094482421875,-1.0754547119140625,-0.32733154296875,-0.008880615234375
1760107155426160600,5.04116064453125,-1.1070098876953125,-0.31671142578125,-0.0253448486328125
1760107155436225500,5.0512255859375,-1.120330810546875,-0.3091278076171875,-0.0237579345703125
1760107155446291500,5.06129150390625,-1.1041259765625,-0.2952117919921875,-0.0022735595703125
1760107155456356600,5.071356689453125,-1.064727783203125,-0.276947021484375,0.032989501953125
1760107155466422500,5.081422607421875,-1.005401611328125,-0.264404296875,0.065460205078125
1760107155476487400,5.0914873046875,-0.9341278076171875,-0.2655792236328125,0.0889892578125
1760107155486553300,5.10155322265625,-0.8568267822265625,-0.2821502685546875,0.0912017822265625
1760107155496618500,5.111618408203125,-0.8011322021484375,-0.3046875,0.07220458984375
1760107155506684400,5.121684326171875,-0.7815093994140625,-0.328338623046875,0.0462493896484375
1760107155516749600,5.13174951171875,-0.7974853515625,-0.348968505859375,0.025543212890625
1760107155526814500,5.141814453125,-0.8345489501953125,-0.357025146484375,0.010406494140625
1760107155536880400,5.15188037109375,-0.8743133544921875,-0.3478240966796875,0.0043792724609375
1760107155546945500,5.161945556640625,-0.900482177734375,-0.325469970703125,0.0039520263671875
1760107155557011700,5.17201171875,-0.9078521728515625,-0.3038482666015625,0.0164947509765625
1760107155567076400,5.182076416015625,-0.89605712890625,-0.2917633056640625,0.03582763671875
1760107155577142500,5.192142578125,-0.8781280517578125,-0.284881591796875,0.0492706298828125
1760107155587207700,5.202207763671875,-0.8720703125,-0.282073974609375,0.053314208984375
1760107155597273600,5.212273681640625,-0.884124755859375,-0.2819366455078125,0.052764892578125
1760107155607338500,5.22233837890625,-0.919769287109375,-0.28192138671875,0.049896240234375
1760107155617404400,5.232404296875,-0.971038818359375,-0.2862701416015625,0.0398406982421875
1760107155627469600,5.242469482421875,-1.0110015869140625,-0.2953948974609375,0.030731201171875
1760107155637535500,5.252535400390625,-1.0281829833984375,-0.298065185546875,0.0282745361328125
1760107155647600400,5.262600341796875,-1.01959228515625,-0.2904205322265625,0.0264892578125
1760107155657666600,5.27266650390625,-0.98272705078125,-0.2859649658203125,0.0325164794921875
1760107155667731500,5.2827314453125,-0.9311676025390625,-0.292022705078125,0.04595947265625
1760107155677797600,5.292797607421875,-0.8850860595703125,-0.3094329833984375,0.053070068359375
1760107155687862300,5.3028623046875,-0.85650634765625,-0.328826904296875,0.0443267822265625
1760107155697928400,5.312928466796875,-0.8478546142578125,-0.3438720703125,0.0288848876953125
1760107155707993600,5.32299365234375,-0.85302734375,-0.34930419921875,0.0241546630859375
1760107155718059500,5.3330595703125,-0.8693695068359375,-0.3427886962890625,0.027130126953125
1760107155728124700,5.343124755859375,-0.88916015625,-0.33001708984375,0.035247802734375
1760107155738189600,5.353189453125,-0.9087677001953125,-0.3221282958984375,0.0408782958984375
1760107155748255500,5.36325537109375,-0.9095001220703125,-0.323333740234375,0.03289794921875
1760107155758320600,5.373320556640625,-0.894500732421875,-0.3336029052734375,0.0138092041015625
1760107155768386600,5.383386474609375,-0.87689208984375,-0.350738525390625,-0.0063934326171875
1760107155778451500,5.393451416015625,-0.859619140625,-0.3648681640625,-0.01727294921875
1760107155788517400,5.403517333984375,-0.8451690673828125,-0.3715972900390625,-0.0114593505859375
1760107155798582500,5.41358251953125,-0.8330535888671875,-0.3675689697265625,-0.003265380859375
1760107155808648700,5.423648681640625,-0.8223114013671875,-0.362274169921875,0.00311279296875
1760107155818713300,5.43371337890625,-0.820037841796875,-0.36279296875,0.0095062255859375
1760107155828779500,5.443779541015625,-0.8245697021484375,-0.3649444580078125,0.014892578125
1760107155838844400,5.453844482421875,-0.8404541015625,-0.3700714111328125,0.008026123046875
1760107155848910600,5.46391064453125,-0.8660430908203125,-0.379180908203125,-0.008331298828125
1760107155858975500,5.4739755859375,-0.88671875,-0.3883209228515625,-0.0149383544921875
1760107155869041400,5.48404150390625,-0.9010772705078125,-0.3894195556640625,-0.0129547119140625
1760107155879106600,5.4941064453125,-0.918670654296875,-0.384521484375,-0.00701904296875
1760107155889172500,5.50417236328125,-0.944610595703125,-0.3761138916015625,-0.0006103515625
1760107155899237600,5.514237548828125,-0.97552490234375,-0.3665771484375,-0.0027923583984375
1760107155909303600,5.524303466796875,-1.0206451416015625,-0.3702850341796875,-0.0212860107421875
1760107155919368400,5.534368408203125,-1.0633392333984375,-0.3806915283203125,-0.0431060791015625
1760107155929434600,5.5444345703125,-1.09527587890625,-0.3814697265625,-0.05047607421875
1760107155939499500,5.55449951171875,-1.1170806884765625,-0.3777618408203125,-0.03424072265625
1760107155949564400,5.564564453125,-1.11566162109375,-0.37261962890625,0.0021209716796875
1760107155959630600,5.574630615234375,-1.0941619873046875,-0.363037109375,0.03619384765625
1760107155969695500,5.584695556640625,-1.05841064453125,-0.3615264892578125,0.06146240234375
1760107155979761700,5.59476171875,-1.0259246826171875,-0.3681793212890625,0.0731658935546875
1760107155989826600,5.60482666015625,-1.0089874267578125,-0.3801727294921875,0.0743560791015625
1760107155999892500,5.614892578125,-1.00750732421875,-0.390106201171875,0.0714263916015625
1760107156009957600,5.62495751953125,-1.01031494140625,-0.384307861328125,0.0694580078125
1760107156020023600,5.6350234375,-1.0024871826171875,-0.3600311279296875,0.0657501220703125
1760107156030088400,5.64508837890625,-0.98260498046875,-0.3263702392578125,0.06072998046875
1760107156040154400,5.655154296875,-0.9650421142578125,-0.3043670654296875,0.0424957275390625
1760107156050219500,5.665219482421875,-0.9656829833984375,-0.3057098388671875,0.029876708984375
1760107156060285700,5.67528564453125,-0.987579345703125,-0.3126068115234375,0.0256805419921875
1760107156070350300,5.685350341796875,-1.018768310546875,-0.300689697265625,0.0244598388671875
1760107156080416500,5.69541650390625,-1.06317138671875,-0.2713623046875,0.0137481689453125
1760107156090481400,5.7054814453125,-1.1018829345703125,-0.2441558837890625,0.0099639892578125
1760107156100547600,5.715547607421875,-1.1382293701171875,-0.2276763916015625,0.0183258056640625
1760107156110612700,5.72561279296875,-1.1689605712890625,-0.224151611328125,0.0336456298828125
1760107156120678400,5.735678466796875,-1.1787109375,-0.232330322265625,0.04693603515625
1760107156130743600,5.74574365234375,-1.1611175537109375,-0.234222412109375,0.0467987060546875
1760107156140808700,5.75580859375,-1.1160125732421875,-0.2307281494140625,0.034027099609375
1760107156150874600,5.76587451171875,-1.047698974609375,-0.2281646728515625,0.0192718505859375
1760107156160939500,5.775939453125,-0.97296142578125,-0.232574462890625,0.0095062255859375
1760107156171005400,5.78600537109375,-0.9139404296875,-0.243255615234375,0.0020294189453125
1760107156181070600,5.796070556640625,-0.8830108642578125,-0.2521820068359375,-0.001495361328125
1760107156191136300,5.80613623046875,-0.8721771240234375,-0.2513885498046875,-0.0019378662109375
1760107156201201200,5.816201171875,-0.8747100830078125,-0.24652099609375,-0.004119873046875
1760107156211267300,5.826267333984375,-0.8808746337890625,-0.2453765869140625,-0.005462646484375
1760107156221332200,5.836332275390625,-0.887481689453125,-0.2484130859375,-0.012359619140625
1760107156231398400,5.8463984375,-0.89764404296875,-0.254791259765625,-0.0286102294921875
1760107156241463300,5.85646337890625,-0.906463623046875,-0.2662811279296875,-0.052276611328125
1760107156251529200,5.866529296875,-0.91473388671875,-0.2848968505859375,-0.078765869140625
1760107156261594400,5.876594482421875,-0.9188995361328125,-0.30419921875,-0.0982818603515625
1760107156271660300,5.886660400390625,-0.926788330078125,-0.3182525634765625,-0.1041412353515625
1760107156281725400,5.896725341796875,-0.94287109375,-0.32452392578125,-0.10186767578125
1760107156291791000,5.906791015625,-0.9575958251953125,-0.3203277587890625,-0.08929443359375
1760107156301856300,5.916856201171875,-0.9547271728515625,-0.3049774169921875,-0.061676025390625
1760107156311921400,5.92692138671875,-0.9371795654296875,-0.2865142822265625,-0.0275115966796875
1760107156321987300,5.9369873046875,-0.9104156494140625,-0.2717132568359375,0.00140380859375
1760107156332052200,5.94705224609375,-0.8892059326171875,-0.2703704833984375,0.020233154296875
1760107156342118100,5.9571181640625,-0.8792877197265625,-0.2757568359375,0.0272369384765625
1760107156352183300,5.967183349609375,-0.8717498779296875,-0.2896575927734375,0.0231781005859375
1760107156362249500,5.97724951171875,-0.8730316162109375,-0.302764892578125,0.0172271728515625
1760107156372314000,5.987314208984375,-0.879730224609375,-0.3104705810546875,0.0132293701171875
1760107156382380300,5.99738037109375,-0.889068603515625,-0.3144683837890625,0.0103759765625
1760107156392445400,6.007445556640625,-0.9037017822265625,-0.317474365234375,0.006683349609375
1760107156402511400,6.017511474609375,-0.917388916015625,-0.323638916015625,-0.0025787353515625
1760107156412576300,6.027576171875,-0.9212799072265625,-0.333282470703125,-0.0114593505859375
1760107156422642200,6.03764208984375,-0.91546630859375,-0.3412933349609375,-0.0143890380859375
1760107156432707300,6.047707275390625,-0.904998779296875,-0.347808837890625,-0.015899658203125
1760107156442773200,6.057773193359375,-0.8968658447265625,-0.3527069091796875,-0.0147247314453125
1760107156452838400,6.06783837890625,-0.890869140625,-0.3567657470703125,-0.0120849609375
1760107156462904300,6.077904296875,-0.8839874267578125,-0.363006591796875,-0.0139007568359375
1760107156472969200,6.08796923828125,-0.8834991455078125,-0.3680267333984375,-0.016571044921875
1760107156483034400,6.098034423828125,-0.8880767822265625,-0.37005615234375,-0.0200958251953125
1760107156493100300,6.108100341796875,-0.8946075439453125,-0.374481201171875,-0.02679443359375
1760107156503165200,6.118165283203125,-0.9042510986328125,-0.3782958984375,-0.034576416015625
1760107156513231400,6.1282314453125,-0.9156341552734375,-0.3833160400390625,-0.0362091064453125
1760107156523296300,6.138296142578125,-0.91412353515625,-0.3903656005859375,-0.039215087890625
1760107156533362400,6.148362548828125,-0.89959716796875,-0.396514892578125,-0.036376953125
1760107156543427300,6.15842724609375,-0.877410888671875,-0.4023895263671875,-0.026153564453125
1760107156553493200,6.1684931640625,-0.8608551025390625,-0.411773681640625,-0.01959228515625
1760107156563558400,6.178558349609375,-0.863250732421875,-0.4167327880859375,-0.0151519775390625
1760107156573624300,6.188624267578125,-0.883026123046875,-0.415985107421875,-0.0118560791015625
1760107156583689200,6.198689208984375,-0.9190826416015625,-0.4102630615234375,-0.00421142578125
1760107156593755100,6.208755126953125,-0.9605865478515625,-0.39813232421875,0.00592041015625
1760107156603820300,6.2188203125,-0.9979400634765625,-0.3851165771484375,0.0128326416015625
1760107156613886500,6.228886474609375,-1.0330963134765625,-0.3789215087890625,0.0192718505859375
1760107156623951000,6.238951171875,-1.058441162109375,-0.3798370361328125,0.019866943359375
1760107156634016300,6.249016357421875,-1.069122314453125,-0.377166748046875,0.0177459716796875
1760107156644082400,6.25908251953125,-1.069366455078125,-0.3757781982421875,0.0105743408203125
1760107156654147300,6.269147216796875,-1.07501220703125,-0.38336181640625,0.0039520263671875
1760107156664213500,6.279213623046875,-1.0794219970703125,-0.3967742919921875,0.011993408203125
1760107156674278100,6.289278076171875,-1.0743865966796875,-0.401123046875,0.028472900390625
1760107156684344300,6.29934423828125,-1.064727783203125,-0.386199951171875,0.048004150390625
1760107156694409500,6.309409423828125,-1.052886962890625,-0.36553955078125,0.06793212890625
1760107156704475400,6.319475341796875,-1.0368804931640625,-0.3521881103515625,0.0875244140625
1760107156714540300,6.329540283203125,-1.02264404296875,-0.3402099609375,0.09832763671875
1760107156724606200,6.339606201171875,-1.0222930908203125,-0.3235015869140625,0.0928192138671875
1760107156734671400,6.34967138671875,-1.0375823974609375,-0.3108978271484375,0.076080322265625
1760107156744737300,6.3597373046875,-1.058013916015625,-0.3052520751953125,0.0577850341796875
1760107156754802200,6.36980224609375,-1.065765380859375,-0.3037109375,0.0487823486328125
1760107156764868400,6.379868408203125,-1.0615692138671875,-0.303955078125,0.0524749755859375
1760107156774933200,6.389933349609375,-1.0602264404296875,-0.2945098876953125,0.0608062744140625
1760107156784999400,6.39999951171875,-1.082611083984375,-0.2677154541015625,0.0627288818359375
1760107156795064300,6.410064208984375,-1.1151275634765625,-0.2443695068359375,0.059600830078125
1760107156805129200,6.420129150390625,-1.141937255859375,-0.224609375,0.0538787841796875
1760107156815195400,6.4301953125,-1.1461181640625,-0.213043212890625,0.042877197265625
1760107156825260300,6.44026025390625,-1.110076904296875,-0.214447021484375,0.0378570556640625
1760107156835326200,6.450326171875,-1.040985107421875,-0.2171783447265625,0.0439910888671875
1760107156845391400,6.460391357421875,-0.955963134765625,-0.230804443359375,0.052032470703125
1760107156855457300,6.470457275390625,-0.873809814453125,-0.257171630859375,0.0550384521484375
1760107156865522400,6.4805224609375,-0.8215484619140625,-0.2809295654296875,0.0494537353515625
1760107156875588400,6.49058837890625,-0.8026885986328125,-0.29681396484375,0.037933349609375
1760107156885653200,6.5006533203125,-0.8238525390625,-0.3076019287109375,0.024658203125
1760107156895719200,6.51071923828125,-0.8692474365234375,-0.3028564453125,0.0221710205078125
1760107156905784300,6.520784423828125,-0.9053802490234375,-0.282073974609375,0.0315093994140625
1760107156915850500,6.5308505859375,-0.921417236328125,-0.2595367431640625,0.0508575439453125
1760107156925915100,6.5409150390625,-0.9144287109375,-0.24493408203125,0.0639495849609375
1760107156935981300,6.550981201171875,-0.893890380859375,-0.2417755126953125,0.0639495849609375
1760107156946046500,6.56104638671875,-0.875823974609375,-0.2514495849609375,0.050811767578125
1760107156956111000,6.571111083984375,-0.8741607666015625,-0.269866943359375,0.022918701171875
1760107156966177300,6.58117724609375,-0.8932952880859375,-0.2877960205078125,-0.00225830078125
1760107156976242200,6.5912421875,-0.9234771728515625,-0.298614501953125,-0.0154571533203125
1760107156986308400,6.601308349609375,-0.950592041015625,-0.3008575439453125,-0.0110321044921875
1760107156996373500,6.61137353515625,-0.9617767333984375,-0.2909088134765625,0.014495849609375
1760107157006439200,6.621439208984375,-0.954376220703125,-0.2736968994140625,0.0495452880859375
1760107157016504300,6.63150439453125,-0.9319610595703125,-0.2583160400390625,0.0791778564453125
1760107157026570200,6.6415703125,-0.9060821533203125,-0.2530517578125,0.0928497314453125
1760107157036635400,6.651635498046875,-0.8816680908203125,-0.2639312744140625,0.0845947265625
1760107157046701300,6.661701416015625,-0.855682373046875,-0.2855072021484375,0.05487060546875
1760107157056766200,6.67176611328125,-0.8319549560546875,-0.3125,0.0199737548828125
1760107157066832400,6.681832275390625,-0.8186492919921875,-0.332672119140625,0.000762939453125
1760107157076897300,6.691897216796875,-0.815399169921875,-0.3439178466796875,0.003814697265625
1760107157086963500,6.70196337890625,-0.826263427734375,-0.339630126953125,0.0113525390625
1760107157097028400,6.7120283203125,-0.8480377197265625,-0.3284454345703125,0.01702880859375
1760107157107093200,6.72209326171875,-0.8781280517578125,-0.318359375,0.0199737548828125
1760107157117159400,6.732159423828125,-0.9128875732421875,-0.3132171630859375,0.020294189453125
1760107157127224300,6.742224365234375,-0.9412689208984375,-0.316131591796875,0.0101470947265625
1760107157137290200,6.752290283203125,-0.9515228271484375,-0.326141357421875,-0.0044708251953125
1760107157147355400,6.76235546875,-0.9425201416015625,-0.337921142578125,-0.022003173828125
1760107157157421300,6.77242138671875,-0.9133148193359375,-0.35455322265625,-0.02850341796875
1760107157167486200,6.782486328125,-0.875946044921875,-0.370697021484375,-0.0279388427734375
1760107157177552100,6.79255224609375,-0.84814453125,-0.3792266845703125,-0.0234832763671875
1760107157187617300,6.8026171875,-0.842193603515625,-0.381500244140625,-0.0182037353515625
1760107157197683500,6.812683349609375,-0.85552978515625,-0.3813629150390625,-0.01434326171875
1760107157207748000,6.822748046875,-0.8944854736328125,-0.385498046875,-0.01580810546875
1760107157217814300,6.832814208984375,-0.9450836181640625,-0.3880767822265625,-0.020660400390625
1760107157227879200,6.842879150390625,-0.986419677734375,-0.3784942626953125,-0.025970458984375
1760107157237944300,6.8529443359375,-1.0115966796875,-0.3656005859375,-0.0268096923828125
1760107157248010200,6.86301025390625,-1.0362396240234375,-0.359222412109375,-0.0223236083984375
1760107157258075100,6.8730751953125,-1.06549072265625,-0.356964111328125,-0.022064208984375
1760107157268141300,6.883141357421875,-1.0991668701171875,-0.352569580078125,-0.0274200439453125
1760107157278206500,6.89320654296875,-1.1253204345703125,-0.346649169921875,-0.0362548828125
1760107157288272400,6.9032724609375,-1.1359100341796875,-0.343841552734375,-0.0336151123046875
1760107157298337300,6.913337158203125,-1.1248626708984375,-0.3474884033203125,-0.0238494873046875
1760107157308403200,6.9234033203125,-1.0918426513671875,-0.352447509765625,-0.0083770751953125
1760107157318468400,6.93346826171875,-1.053985595703125,-0.35968017578125,0.0085906982421875
1760107157328534300,6.9435341796875,-1.0219573974609375,-0.3677215576171875,0.0283966064453125
1760107157338599200,6.95359912109375,-1.0120697021484375,-0.3690032958984375,0.04534912109375
1760107157348665300,6.963665283203125,-1.0178985595703125,-0.3601531982421875,0.0576324462890625
1760107157358730200,6.973730224609375,-1.0248565673828125,-0.345367431640625,0.06170654296875
1760107157368796400,6.98379638671875,-1.0256500244140625,-0.335296630859375,0.0739898681640625
1760107157378861300,6.993861328125,-1.0081329345703125,-0.3234100341796875,0.0749664306640625
1760107157388926200,7.00392626953125,-0.982635498046875,-0.311859130859375,0.05767822265625
1760107157398992400,7.013992431640625,-0.953399658203125,-0.303466796875,0.031524658203125
1760107157409057300,7.024057373046875,-0.93853759765625,-0.298187255859375,0.012298583984375
1760107157419123200,7.034123291015625,-0.93109130859375,-0.286529541015625,0.0078887939453125
1760107157429188400,7.044188232421875,-0.93634033203125,-0.269500732421875,0.02069091796875
1760107157439254300,7.054254150390625,-0.9628448486328125,-0.254486083984375,0.04632568359375
1760107157449319400,7.0643193359375,-1.0128936767578125,-0.2410736083984375,0.0608673095703125
1760107157459385000,7.074385009765625,-1.0636138916015625,-0.2356414794921875,0.0577239990234375
1760107157469450200,7.0844501953125,-1.0912628173828125,-0.2459716796875,0.0514984130859375
1760107157479516200,7.09451611328125,-1.093658447265625,-0.2640533447265625,0.0458831787109375
1760107157489581300,7.104581298828125,-1.083831787109375,-0.2778167724609375,0.031829833984375
1760107157499647500,7.1146474609375,-1.0645904541015625,-0.2916717529296875,0.01593017578125
1760107157509712100,7.124712158203125,-1.035491943359375,-0.2936248779296875,0.0036468505859375
1760107157519777300,7.13477734375,-1.0028228759765625,-0.28460693359375,-0.0019378662109375
1760107157529843500,7.144843505859375,-0.9748077392578125,-0.2721099853515625,0.0063629150390625
1760107157539908000,7.154908203125,-0.9513702392578125,-0.2606964111328125,0.01531982421875
1760107157549974300,7.164974365234375,-0.935699462890625,-0.2532806396484375,0.0206451416015625
1760107157560039200,7.1750390625,-0.9189300537109375,-0.248870849609375,0.0247039794921875
1760107157570105300,7.185105224609375,-0.9006500244140625,-0.250152587890625,0.02093505859375
1760107157580170200,7.195170166015625,-0.8862457275390625,-0.2615966796875,0.0053558349609375
1760107157590236200,7.205236083984375,-0.8820648193359375,-0.2827606201171875,-0.019012451171875
1760107157600301300,7.21530126953125,-0.890838623046875,-0.3034210205078125,-0.0450286865234375
1760107157610367200,7.2253671875,-0.9100494384765625,-0.32061767578125,-0.0644989013671875
1760107157620432400,7.235432373046875,-0.930633544921875,-0.3276214599609375,-0.0735015869140625
1760107157630498000,7.245498046875,-0.950927734375,-0.3200531005859375,-0.063323974609375
1760107157640563200,7.255563232421875,-0.96685791015625,-0.30584716796875,-0.0404205322265625
1760107157650628400,7.26562841796875,-0.9718475341796875,-0.2887420654296875,-0.0158538818359375
1760107157660694300,7.2756943359375,-0.9635009765625,-0.275146484375,0.0035247802734375
1760107157670759200,7.28575927734375,-0.9477996826171875,-0.2722930908203125,0.015777587890625
1760107157680825300,7.295825439453125,-0.9296112060546875,-0.273101806640625,0.0201568603515625
1760107157690890200,7.30589013671875,-0.9141998291015625,-0.276275634765625,0.023895263671875
1760107157700956400,7.315956298828125,-0.904022216796875,-0.28228759765625,0.028961181640625
1760107157711021300,7.326021240234375,-0.89935302734375,-0.283294677734375,0.0372314453125
1760107157721087200,7.336087158203125,-0.898193359375,-0.284149169921875,0.04620361328125
1760107157731152400,7.34615234375,-0.8953857421875,-0.2912750244140625,0.0439605712890625
1760107157741218300,7.35621826171875,-0.879852294921875,-0.302978515625,0.0272979736328125
1760107157751283200,7.366283203125,-0.8584442138671875,-0.3232269287109375,0.0044708251953125
1760107157761349000,7.37634912109375,-0.836578369140625,-0.3492584228515625,-0.0168914794921875
1760107157771414300,7.386414306640625,-0.820281982421875,-0.372802734375,-0.0326080322265625
1760107157781479400,7.3964794921875,-0.81170654296875,-0.3849945068359375,-0.043212890625
1760107157791545000,7.406545166015625,-0.8111114501953125,-0.3867645263671875,-0.0433349609375
1760107157801610200,7.4166103515625,-0.8221435546875,-0.380096435546875,-0.0325164794921875
1760107157811676200,7.42667626953125,-0.841949462890625,-0.3721160888671875,-0.01885986328125
1760107157821741300,7.4367412109375,-0.8615570068359375,-0.362274169921875,-0.0101470947265625
1760107157831807500,7.446807373046875,-0.874176025390625,-0.358428955078125,-0.008880615234375
1760107157841872100,7.4568720703125,-0.8795928955078125,-0.362213134765625,-0.0125274658203125
1760107157851938300,7.466938232421875,-0.8813018798828125,-0.369537353515625,-0.020172119140625
1760107157862003200,7.477003173828125,-0.8794403076171875,-0.3775634765625,-0.027679443359375
1760107157872069400,7.4870693359375,-0.877166748046875,-0.38336181640625,-0.032867431640625
1760107157882134300,7.49713427734375,-0.880279541015625,-0.3882904052734375,-0.0303802490234375
1760107157892200200,7.5072001953125,-0.890380859375,-0.388702392578125,-0.0247039794921875
1760107157902265300,7.517265380859375,-0.9014739990234375,-0.3839569091796875,-0.020233154296875
1760107157912330200,7.527330322265625,-0.9174652099609375,-0.3794097900390625,-0.0147705078125
1760107157922396200,7.537396240234375,-0.9405975341796875,-0.3790130615234375,-0.0004425048828125
1760107157932461300,7.54746142578125,-0.969207763671875,-0.3776702880859375,0.0114898681640625
1760107157942527200,7.55752734375,-0.997100830078125,-0.368988037109375,0.0184173583984375
1760107157952592400,7.56759228515625,-1.0195159912109375,-0.363433837890625,0.02203369140625
1760107157962658000,7.577657958984375,-1.03704833984375,-0.36395263671875,0.0186309814453125
1760107157972723200,7.58772314453125,-1.0442047119140625,-0.366973876953125,0.0145721435546875
1760107157982789400,7.597789306640625,-1.0501708984375,-0.370391845703125,0.006317138671875
1760107157992854300,7.607854248046875,-1.061614990234375,-0.3715057373046875,0.006683349609375
1760107158002920200,7.617920166015625,-1.0895843505859375,-0.3717803955078125,0.016387939453125
1760107158012985300,7.6279853515625,-1.1280059814453125,-0.3760223388671875,0.03338623046875
1760107158023050200,7.63805029296875,-1.1513824462890625,-0.37799072265625,0.0475006103515625
1760107158033116400,7.648116455078125,-1.151153564453125,-0.3724517822265625,0.06072998046875
1760107158043181000,7.65818115234375,-1.13067626953125,-0.3647003173828125,0.0789947509765625
1760107158053247200,7.668247314453125,-1.0871124267578125,-0.364776611328125,0.0954742431640625
1760107158063312400,7.6783125,-1.028778076171875,-0.3704681396484375,0.1027984619140625
1760107158073378300,7.68837841796875,-0.98883056640625,-0.37298583984375,0.0947723388671875
1760107158083443200,7.698443115234375,-0.97991943359375,-0.367889404296875,0.0746612548828125
1760107158093509000,7.708509033203125,-1.00164794921875,-0.3569793701171875,0.055755615234375
1760107158103574300,7.71857421875,-1.0346527099609375,-0.3414764404296875,0.0461578369140625
1760107158113640200,7.72864013671875,-1.0601043701171875,-0.3217620849609375,0.0420989990234375
1760107158123705000,7.738705078125,-1.0692596435546875,-0.3050079345703125,0.04119873046875
1760107158133771300,7.748771240234375,-1.0738067626953125,-0.29296875,0.0377349853515625
1760107158143836200,7.758836181640625,-1.0691986083984375,-0.28497314453125,0.039337158203125
1760107158153901300,7.7689013671875,-1.0599212646484375,-0.2731170654296875,0.0500640869140625
1760107158163967500,7.778967529296875,-1.0393829345703125,-0.2548828125,0.056060791015625
1760107158174032100,7.7890322265625,-1.0051727294921875,-0.242828369140625,0.066162109375
1760107158184098300,7.799098388671875,-0.965179443359375,-0.2439727783203125,0.0825653076171875
1760107158194163700,7.809163818359375,-0.91168212890625,-0.254364013671875,0.096160888671875
1760107158204230000,7.81922998046875,-0.8555145263671875,-0.2714385986328125,0.095733642578125
1760107158214294800,7.829294677734375,-0.8207550048828125,-0.2899932861328125,0.0928497314453125
1760107158224361000,7.83936083984375,-0.820709228515625,-0.303131103515625,0.0800018310546875
1760107158234425900,7.84942578125,-0.852813720703125,-0.307342529296875,0.061981201171875
1760107158244491800,7.85949169921875,-0.8885498046875,-0.297637939453125,0.04608154296875
1760107158254557000,7.869556884765625,-0.906890869140625,-0.279296875,0.04290771484375
1760107158264622000,7.8796220703125,-0.90576171875,-0.2681884765625,0.04315185546875
1760107158274688000,7.88968798828125,-0.8829803466796875,-0.2646484375,0.0397491455078125
1760107158284753000,7.8997529296875,-0.85400390625,-0.26715087890625,0.0302276611328125
1760107158294818800,7.90981884765625,-0.836822509765625,-0.2782440185546875,0.012939453125
1760107158304884000,7.919884033203125,-0.842681884765625,-0.2896270751953125,-0.0018768310546875
1760107158314950000,7.929949951171875,-0.879241943359375,-0.2995147705078125,-0.0132904052734375
1760107158325014800,7.940014892578125,-0.92706298828125,-0.301177978515625,-0.0198974609375
1760107158335081000,7.9500810546875,-0.9712677001953125,-0.304290771484375,-0.004791259765625
1760107158345145900,7.960145751953125,-0.9935302734375,-0.28521728515625,0.028228759765625
1760107158355212000,7.9702119140625,-0.9870758056640625,-0.262420654296875,0.0643463134765625
1760107158365277000,7.98027685546875,-0.9611358642578125,-0.25213623046875,0.09185791015625
1760107158375342800,7.9903427734375,-0.9315643310546875,-0.2569580078125,0.1153564453125
1760107158385408000,8.000407958984376,-0.9056854248046875,-0.2694091796875,0.115509033203125
1760107158395473000,8.010472900390624,-0.8815155029296875,-0.2848052978515625,0.0913543701171875
1760107158405538800,8.020538818359375,-0.86370849609375,-0.3017425537109375,0.0581207275390625
1760107158415604000,8.03060400390625,-0.849884033203125,-0.322235107421875,0.0314483642578125
1760107158425670000,8.040669921875,-0.8407745361328125,-0.337982177734375,0.0208587646484375
1760107158435735000,8.050735107421875,-0.8336334228515625,-0.34320068359375,0.01800537109375
1760107158445800700,8.06080078125,-0.84344482421875,-0.3426513671875,0.0256500244140625
1760107158455865900,8.070865966796875,-0.87115478515625,-0.3355712890625,0.0331878662109375
1760107158465931800,8.080931884765626,-0.90106201171875,-0.31915283203125,0.04266357421875
1760107158475997000,8.090996826171875,-0.92950439453125,-0.3033447265625,0.0472564697265625
1760107158486063000,8.10106298828125,-0.9505767822265625,-0.3047332763671875,0.0373077392578125
1760107158496127700,8.111127685546874,-0.952392578125,-0.3146209716796875,0.0215606689453125
1760107158506193000,8.12119287109375,-0.9396209716796875,-0.3297271728515625,0.0085296630859375
1760107158516259000,8.131259033203126,-0.9134674072265625,-0.343658447265625,-0.0000457763671875
1760107158526323700,8.14132373046875,-0.88507080078125,-0.3515777587890625,-0.0087738037109375
1760107158536390000,8.151389892578125,-0.8633880615234375,-0.3561553955078125,-0.0121307373046875
1760107158546454800,8.161454833984376,-0.8569488525390625,-0.3560333251953125,-0.008056640625
1760107158556521000,8.17152099609375,-0.873016357421875,-0.352203369140625,-0.0041046142578125
1760107158566585900,8.1815859375,-0.908905029296875,-0.34552001953125,-0.01336669921875
1760107158576651800,8.19165185546875,-0.959442138671875,-0.3410491943359375,-0.0261383056640625
1760107158586717000,8.201717041015625,-1.0119476318359375,-0.338531494140625,-0.0278167724609375
1760107158596782800,8.211782958984376,-1.062835693359375,-0.3308258056640625,-0.0213470458984375
1760107158606848000,8.221847900390625,-1.1051788330078125,-0.318023681640625,-0.0197906494140625
1760107158616913000,8.231912841796875,-1.1387176513671875,-0.3071136474609375,-0.024200439453125
1760107158626978800,8.241978759765624,-1.15911865234375,-0.29913330078125,-0.026214599609375
1760107158637044000,8.2520439453125,-1.15594482421875,-0.2977294921875,-0.0214691162109375
1760107158647110000,8.26210986328125,-1.129608154296875,-0.307037353515625,-0.010772705078125
1760107158657174800,8.2721748046875,-1.08349609375,-0.3198699951171875,0.0059661865234375
1760107158667241000,8.282240966796875,-1.0320587158203125,-0.3248748779296875,0.0301971435546875
1760107158677305900,8.292305908203126,-0.9844512939453125,-0.328460693359375,0.0573883056640625
1760107158687372000,8.3023720703125,-0.9637451171875,-0.3437347412109375,0.0807647705078125
1760107158697437000,8.31243701171875,-0.9647064208984375,-0.360504150390625,0.0939483642578125
1760107158707502800,8.3225029296875,-0.97540283203125,-0.3733673095703125,0.0925445556640625
1760107158717568000,8.332568115234375,-0.9872283935546875,-0.3705291748046875,0.080596923828125
1760107158727633000,8.3426328125,-0.985626220703125,-0.3582916259765625,0.056732177734375
1760107158737698800,8.35269873046875,-0.97479248046875,-0.352996826171875,0.017242431640625
1760107158747764000,8.362763916015625,-0.971588134765625,-0.361785888671875,-0.027923583984375
1760107158757830000,8.372829833984374,-0.9820404052734375,-0.3808441162109375,-0.0466156005859375
1760107158767895000,8.38289501953125,-1.0105743408203125,-0.3858642578125,-0.042999267578125
1760107158777960700,8.392960693359376,-1.05975341796875,-0.3569488525390625,-0.0395965576171875
1760107158788025900,8.40302587890625,-1.119354248046875,-0.3101959228515625,-0.02325439453125
1760107158798091800,8.413091796875,-1.1680145263671875,-0.2782135009765625,-0.002960205078125
1760107158808157000,8.423156982421874,-1.2104339599609375,-0.2578582763671875,0.0188751220703125
1760107158818223000,8.43322314453125,-1.2104644775390625,-0.2397308349609375,0.040313720703125
1760107158828287700,8.443287841796876,-1.1709747314453125,-0.225982666015625,0.05120849609375
1760107158838353000,8.453352783203124,-1.100433349609375,-0.2229156494140625,0.0381622314453125
1760107158848419000,8.463419189453125,-1.014404296875,-0.247406005859375,0.0055999755859375
1760107158858483700,8.473483642578126,-0.93731689453125,-0.2792510986328125,-0.0191650390625
1760107158868550000,8.4835498046875,-0.884246826171875,-0.3014984130859375,-0.0340728759765625
1760107158878614800,8.49361474609375,-0.8509979248046875,-0.3062591552734375,-0.04388427734375
1760107158888681000,8.503680908203124,-0.831573486328125,-0.296722412109375,-0.0479736328125
1760107158898745900,8.513745849609375,-0.82635498046875,-0.280059814453125,-0.037872314453125
1760107158908811800,8.523811767578126,-0.8296051025390625,-0.268035888671875,-0.02490234375
1760107158918877000,8.533876953125,-0.834869384765625,-0.2657928466796875,-0.0162200927734375
1760107158928942800,8.54394287109375,-0.8414459228515625,-0.2684478759765625,-0.014801025390625
1760107158939008000,8.554008056640624,-0.8568878173828125,-0.272552490234375,-0.0263214111328125
1760107158949073000,8.564072998046875,-0.884307861328125,-0.2835540771484375,-0.043609619140625
1760107158959138800,8.574138916015626,-0.922332763671875,-0.2956390380859375,-0.0574188232421875
1760107158969204000,8.584203857421874,-0.9703521728515625,-0.3028564453125,-0.05572509765625
1760107158979270000,8.594269775390625,-1.0205230712890625,-0.29815673828125,-0.0419158935546875
1760107158989334800,8.604334716796876,-1.043426513671875,-0.282623291015625,-0.029693603515625
1760107158999401000,8.61440087890625,-1.03924560546875,-0.2655487060546875,-0.00927734375
1760107159009465900,8.6244658203125,-1.0120697021484375,-0.2558441162109375,0.016571044921875
1760107159019532000,8.634531982421874,-0.96234130859375,-0.258209228515625,0.0383148193359375
1760107159029597000,8.644596923828125,-0.8977813720703125,-0.2684783935546875,0.04571533203125
1760107159039662800,8.654662841796876,-0.8426666259765625,-0.2889556884765625,0.0333709716796875
1760107159049728000,8.66472802734375,-0.81243896484375,-0.318359375,0.0128936767578125
1760107159059793000,8.67479296875,-0.8046875,-0.3447723388671875,-0.0061187744140625
1760107159069858800,8.68485888671875,-0.8174591064453125,-0.362396240234375,-0.0172576904296875
1760107159079924000,8.694924072265625,-0.8486175537109375,-0.369415283203125,-0.0225830078125
1760107159089990000,8.704989990234376,-0.8777313232421875,-0.365814208984375,-0.0220794677734375
1760107159100055000,8.715054931640625,-0.8934478759765625,-0.35504150390625,-0.013671875
1760107159110120700,8.72512060546875,-0.896453857421875,-0.350311279296875,-0.0106201171875
1760107159120185900,8.735185791015626,-0.8809356689453125,-0.3506317138671875,-0.0153350830078125
1760107159130251800,8.745251708984375,-0.8553009033203125,-0.3594207763671875,-0.0236663818359375
1760107159140317000,8.75531689453125,-0.83349609375,-0.366607666015625,-0.0290679931640625
1760107159150381800,8.7653818359375,-0.8321990966796875,-0.370635986328125,-0.026885986328125
1760107159160447700,8.77544775390625,-0.8451385498046875,-0.3661651611328125,-0.01171875
1760107159170513000,8.785512939453126,-0.8677978515625,-0.3544921875,0.0096435546875
1760107159180579000,8.7955791015625,-0.89068603515625,-0.34356689453125,0.026519775390625
1760107159190643200,8.805643310546875,-0.909088134765625,-0.3402099609375,0.03741455078125
1760107159200709000,8.815709228515624,-0.9245758056640625,-0.3386077880859375,0.0414886474609375
1760107159210774300,8.825774169921875,-0.9372406005859375,-0.3422698974609375,0.0391082763671875
1760107159220840200,8.835840087890626,-0.9444427490234375,-0.344757080078125,0.036865234375
1760107159230905000,8.845905029296874,-0.94732666015625,-0.3500213623046875,0.04071044921875
1760107159240970200,8.85597021484375,-0.942779541015625,-0.351165771484375,0.0479583740234375
1760107159251036200,8.8660361328125,-0.939788818359375,-0.3507537841796875,0.0514068603515625
1760107159261101300,8.876101318359375,-0.943878173828125,-0.3522186279296875,0.0514068603515625
1760107159271167000,8.8861669921875,-0.9600677490234375,-0.355010986328125,0.0476226806640625
1760107159281232100,8.896232177734374,-0.982696533203125,-0.3600311279296875,0.042938232421875
1760107159291298000,8.906298095703125,-1.0013275146484375,-0.3619232177734375,0.0343170166015625
1760107159301363200,8.91636328125,-1.0131072998046875,-0.3621063232421875,0.020416259765625
1760107159311429000,8.92642919921875,-1.0325164794921875,-0.36181640625,0.022705078125
1760107159321494000,8.936493896484375,-1.05450439453125,-0.3531494140625,0.0347442626953125
1760107159331560200,8.946560302734374,-1.0837860107421875,-0.35064697265625,0.058013916015625
1760107159341625000,8.956625,-1.1016082763671875,-0.3528594970703125,0.07855224609375
1760107159351690000,8.96668994140625,-1.0953369140625,-0.3455047607421875,0.087432861328125
1760107159361756200,8.976756103515624,-1.0662689208984375,-0.343353271484375,0.093719482421875
1760107159371821000,8.986821044921875,-1.024932861328125,-0.352752685546875,0.0954132080078125
1760107159381887200,8.99688720703125,-0.9793701171875,-0.3707733154296875,0.0974884033203125
1760107159391952100,9.0069521484375,-0.9492340087890625,-0.389892578125,0.097991943359375
1760107159402018000,9.01701806640625,-0.947052001953125,-0.3841552734375,0.0918121337890625
1760107159412083200,9.027083251953124,-0.97430419921875,-0.3560028076171875,0.0819854736328125
1760107159422149000,9.037149169921875,-1.0189666748046875,-0.3151092529296875,0.0712432861328125
1760107159432214000,9.047214111328126,-1.0701904296875,-0.2822265625,0.0674591064453125
1760107159442280000,9.057280029296875,-1.1161651611328125,-0.2684173583984375,0.0681304931640625
1760107159452345000,9.067344970703125,-1.1524505615234375,-0.2632293701171875,0.05755615234375
1760107159462410200,9.07741015625,-1.15911865234375,-0.2557525634765625,0.0161895751953125
1760107159472476200,9.08747607421875,-1.1262359619140625,-0.2557525634765625,-0.0361175537109375
1760107159482541000,9.097541015625,-1.075042724609375,-0.272796630859375,-0.071685791015625
1760107159492607200,9.107607177734375,-1.0107421875,-0.30340576171875,-0.0852813720703125
1760107159502672100,9.117672119140625,-0.9481353759765625,-0.32720947265625,-0.078125
1760107159512738300,9.12773828125,-0.9056243896484375,-0.33056640625,-0.044769287109375
1760107159522803000,9.137802978515625,-0.8779754638671875,-0.3126373291015625,0.0150909423828125
1760107159532869000,9.147869140625,-0.87457275390625,-0.2848968505859375,0.067779541015625
1760107159542934300,9.157934326171874,-0.8996734619140625,-0.253326416015625,0.089080810546875
1760107159552999000,9.1679990234375,-0.941131591796875,-0.2398834228515625,0.084136962890625
1760107159563065000,9.178065185546876,-0.9794921875,-0.24713134765625,0.0532379150390625
1760107159573130200,9.188130126953125,-0.9967803955078125,-0.268524169921875,0.0061492919921875
1760107159583196200,9.198196044921875,-0.9794921875,-0.2877960205078125,-0.0345611572265625
1760107159593261300,9.20826123046875,-0.9377288818359375,-0.3039703369140625,-0.0481109619140625
1760107159603327000,9.218326904296875,-0.884246826171875,-0.3138580322265625,-0.0466766357421875
1760107159613392100,9.22839208984375,-0.85113525390625,-0.3199005126953125,-0.052978515625
1760107159623458000,9.2384580078125,-0.8400726318359375,-0.3209991455078125,-0.0543060302734375
1760107159633523200,9.248523193359375,-0.846893310546875,-0.308837890625,-0.033294677734375
1760107159643589000,9.258589111328124,-0.8768463134765625,-0.2877044677734375,-0.0040740966796875
1760107159653654000,9.268654052734375,-0.9269866943359375,-0.2693023681640625,0.0250701904296875
1760107159663719200,9.27871923828125,-0.9717559814453125,-0.251983642578125,0.04583740234375
1760107159673785000,9.28878515625,-0.9928741455078125,-0.243927001953125,0.043243408203125
1760107159683850000,9.29885009765625,-0.983245849609375,-0.249481201171875,0.0332183837890625
1760107159693916200,9.308916259765626,-0.9596405029296875,-0.2601318359375,0.01519775390625
1760107159703981000,9.31898095703125,-0.934906005859375,-0.274627685546875,-0.0091094970703125
1760107159714047200,9.329047119140625,-0.9069671630859375,-0.297576904296875,-0.0300140380859375
1760107159724112100,9.339112060546874,-0.8842010498046875,-0.31561279296875,-0.045440673828125
1760107159734178000,9.349177978515625,-0.873992919921875,-0.3188629150390625,-0.039306640625
1760107159744243200,9.3592431640625,-0.877777099609375,-0.305908203125,-0.009124755859375
1760107159754308000,9.36930810546875,-0.8801116943359375,-0.28607177734375,0.0284881591796875
1760107159764374300,9.379374267578125,-0.8890228271484375,-0.2704925537109375,0.0631256103515625
1760107159774439200,9.389439208984374,-0.9013671875,-0.2647247314453125,0.07989501953125
1760107159784505000,9.399505126953125,-0.9075927734375,-0.27142333984375,0.07012939453125
1760107159794570200,9.4095703125,-0.90631103515625,-0.2891387939453125,0.045196533203125
1760107159804636200,9.41963623046875,-0.9019622802734375,-0.31341552734375,0.016357421875
1760107159814701000,9.429701171875,-0.8940277099609375,-0.33880615234375,-0.00701904296875
1760107159824767200,9.439767333984374,-0.87750244140625,-0.3559112548828125,-0.025604248046875
1760107159834832100,9.44983203125,-0.85333251953125,-0.367462158203125,-0.031219482421875
1760107159844898300,9.459898193359376,-0.8349456787109375,-0.3749847412109375,-0.02484130859375
1760107159854963000,9.469962890625,-0.82568359375,-0.3723907470703125,-0.01165771484375
1760107159865028000,9.480028076171875,-0.8319549560546875,-0.3615570068359375,0.0071868896484375
1760107159875094300,9.49009423828125,-0.855133056640625,-0.3492279052734375,0.02691650390625
1760107159885159200,9.5001591796875,-0.890655517578125,-0.338165283203125,0.045013427734375
1760107159895225000,9.51022509765625,-0.926513671875,-0.33026123046875,0.0616455078125
1760107159905290200,9.520290283203124,-0.962677001953125,-0.3211669921875,0.0652008056640625
1760107159915356200,9.530356201171875,-0.9965362548828125,-0.31634521484375,0.0518951416015625
1760107159925421300,9.54042138671875,-1.0308380126953125,-0.313934326171875,0.0311431884765625
1760107159935487000,9.550487060546875,-1.06103515625,-0.31756591796875,0.0081024169921875
1760107159945552100,9.56055224609375,-1.0787353515625,-0.3270111083984375,-0.00091552734375
1760107159955617300,9.5706171875,-1.1006317138671875,-0.3311614990234375,-0.0047149658203125
1760107159965683200,9.58068310546875,-1.1123809814453125,-0.327423095703125,-0.0003509521484375
1760107159975748000,9.590748046875,-1.12176513671875,-0.3175506591796875,0.016571044921875
1760107159985814000,9.60081396484375,-1.11181640625,-0.308502197265625,0.0362396240234375
1760107159995879200,9.610879150390625,-1.0787353515625,-0.3055877685546875,0.0516357421875
1760107160005945000,9.620945068359376,-1.0360565185546875,-0.3143463134765625,0.058258056640625
1760107160016010000,9.631010009765625,-1.00323486328125,-0.3303070068359375,0.046173095703125
1760107160026076200,9.641076171875,-0.9939727783203125,-0.3541259765625,0.0269012451171875
1760107160036141000,9.65114111328125,-0.994476318359375,-0.3759002685546875,-0.0007171630859375
1760107160046206200,9.661206298828125,-0.9948577880859375,-0.3854522705078125,-0.0245208740234375
1760107160056272100,9.671272216796876,-0.982757568359375,-0.385467529296875,-0.0369720458984375
1760107160066337000,9.6813369140625,-0.9597625732421875,-0.370269775390625,-0.0393524169921875
1760107160076403200,9.6914033203125,-0.9374237060546875,-0.349365234375,-0.03179931640625
1760107160086468000,9.701468017578126,-0.9196929931640625,-0.3238067626953125,-0.0156097412109375
1760107160096534300,9.7115341796875,-0.925140380859375,-0.29803466796875,0.000640869140625
1760107160106599200,9.72159912109375,-0.963165283203125,-0.2779541015625,0.01690673828125
1760107160116665000,9.7316650390625,-1.0242767333984375,-0.2517852783203125,0.0286712646484375
1760107160126730200,9.741730224609375,-1.107269287109375,-0.2266082763671875,0.0255889892578125
1760107160136795100,9.751795166015626,-1.174835205078125,-0.2212066650390625,0.017242431640625
1760107160146861000,9.761861083984375,-1.216766357421875,-0.2255401611328125,0.019927978515625
1760107160156926200,9.77192626953125,-1.221221923828125,-0.2243194580078125,0.0259246826171875
1760107160166992100,9.7819921875,-1.175933837890625,-0.224090576171875,0.023223876953125
1760107160177057000,9.79205712890625,-1.0919189453125,-0.23065185546875,0.0162506103515625
1760107160187123000,9.802123046875,-0.996490478515625,-0.24822998046875,0.0089111328125
1760107160197187800,9.812187744140624,-0.9141082763671875,-0.2687225341796875,-0.001220703125
1760107160207254000,9.82225390625,-0.84417724609375,-0.285980224609375,-0.0219268798828125
1760107160217319000,9.83231884765625,-0.799102783203125,-0.308990478515625,-0.043670654296875
1760107160227384000,9.842384033203125,-0.77911376953125,-0.3255615234375,-0.061553955078125
1760107160237450200,9.8524501953125,-0.78570556640625,-0.330413818359375,-0.076568603515625
1760107160247515000,9.862514892578124,-0.8070526123046875,-0.3251800537109375,-0.082855224609375
1760107160257581000,9.8725810546875,-0.8330535888671875,-0.3193206787109375,-0.084381103515625
1760107160267646000,9.88264599609375,-0.8605194091796875,-0.3166656494140625,-0.0838623046875
1760107160277712100,9.892712158203125,-0.8854827880859375,-0.3109893798828125,-0.0758819580078125
1760107160287777000,9.902777099609375,-0.915313720703125,-0.303955078125,-0.0632781982421875
1760107160297843000,9.912843017578124,-0.9425201416015625,-0.2993621826171875,-0.0502166748046875
1760107160307908000,9.922908203125,-0.9656219482421875,-0.29437255859375,-0.03619384765625
1760107160317973000,9.932972900390626,-0.995819091796875,-0.28857421875,-0.0224151611328125
1760107160328039000,9.943038818359375,-1.0258636474609375,-0.290435791015625,-0.008331298828125
1760107160338104000,9.95310400390625,-1.0451202392578125,-0.2922821044921875,0.007171630859375
1760107160348170000,9.963169921875,-1.0402984619140625,-0.2871246337890625,0.0144500732421875
1760107160358235100,9.973235107421875,-1.00628662109375,-0.2805938720703125,0.0198516845703125
1760107160368300800,9.98330078125,-0.9548187255859375,-0.2811126708984375,0.0292510986328125
1760107160378366000,9.993365966796874,-0.90020751953125,-0.291290283203125,0.035736083984375
1760107160388432100,10.00343212890625,-0.8540802001953125,-0.3070526123046875,0.0322723388671875
1760107160398497000,10.0134970703125,-0.8257293701171875,-0.3201904296875,0.0171661376953125
1760107160408562000,10.02356201171875,-0.821929931640625,-0.3320159912109375,0
1760107160418628000,10.033628173828125,-0.8357391357421875,-0.3419189453125,-0.007476806640625
1760107160428693000,10.04369287109375,-0.8663177490234375,-0.34979248046875,-0.0093841552734375
1760107160438759200,10.05375927734375,-0.8940887451171875,-0.3536834716796875,-0.0115966796875
1760107160448823800,10.06382373046875,-0.9076690673828125,-0.349639892578125,-0.0122222900390625
1760107160458890000,10.073889892578125,-0.9055938720703125,-0.346771240234375,-0.0087738037109375
1760107160468955100,10.083955078125,-0.8983001708984375,-0.3505859375,-0.0008697509765625
1760107160479021000,10.09402099609375,-0.891326904296875,-0.3559722900390625,0.0090484619140625
1760107160489086000,10.1040859375,-0.889892578125,-0.3615570068359375,0.009521484375
1760107160499151000,10.114151123046875,-0.8926544189453125,-0.364837646484375,0.0067596435546875
1760107160509217000,10.124217041015624,-0.8909454345703125,-0.37109375,0.0047760009765625
1760107160519282200,10.1342822265625,-0.879119873046875,-0.3773651123046875,-0.0013580322265625
1760107160529347800,10.144347900390626,-0.878753662109375,-0.3926239013671875,-0.0071258544921875
1760107160539413000,10.1544130859375,-0.88812255859375,-0.410675048828125,-0.01702880859375
1760107160549479000,10.16447900390625,-0.902130126953125,-0.4220428466796875,-0.0348663330078125
1760107160559544000,10.1745439453125,-0.9200439453125,-0.426177978515625,-0.044921875
1760107160569610200,10.1846103515625,-0.942138671875,-0.429412841796875,-0.0408477783203125
1760107160579675000,10.1946748046875,-0.9663543701171875,-0.42803955078125,-0.0204315185546875
1760107160589740000,10.204739990234375,-0.98834228515625,-0.41204833984375,0.003326416015625
1760107160599806000,10.214805908203125,-1.0122528076171875,-0.3868865966796875,0.023590087890625
1760107160609870800,10.224870849609376,-1.038177490234375,-0.3607635498046875,0.03240966796875
1760107160619937000,10.23493701171875,-1.05865478515625,-0.34735107421875,0.0400390625
1760107160630002000,10.245001953125,-1.082855224609375,-0.342041015625,0.0419464111328125
1760107160640068000,10.255068115234375,-1.1080322265625,-0.3370513916015625,0.0316925048828125
1760107160650133000,10.265133056640625,-1.1370086669921875,-0.3324127197265625,0.0250244140625
1760107160660199000,10.275198974609374,-1.1678924560546875,-0.3254547119140625,0.0307464599609375
1760107160670264000,10.28526416015625,-1.1776580810546875,-0.3126983642578125,0.052764892578125
1760107160680329000,10.295328857421875,-1.1556396484375,-0.305450439453125,0.0820159912109375
1760107160690395100,10.30539501953125,-1.1082000732421875,-0.3046722412109375,0.1054840087890625
1760107160700460000,10.3154599609375,-1.05706787109375,-0.3146820068359375,0.1182403564453125
1760107160710526000,10.32552587890625,-1.0188446044921875,-0.338104248046875,0.117950439453125
1760107160720591000,10.335591064453125,-0.99609375,-0.36175537109375,0.1055755615234375
1760107160730657000,10.345656982421875,-0.9928131103515625,-0.3688507080078125,0.077880859375
1760107160740722000,10.355721923828124,-1.0019683837890625,-0.3672027587890625,0.03741455078125
1760107160750788000,10.3657880859375,-1.018707275390625,-0.365081787109375,0.00189208984375
1760107160760853000,10.37585302734375,-1.0306396484375,-0.364044189453125,-0.018707275390625
1760107160770918100,10.385918212890624,-1.0305633544921875,-0.3547515869140625,-0.0225830078125
1760107160780983800,10.39598388671875,-1.0219268798828125,-0.32952880859375,-0.0164947509765625
1760107160791049000,10.406049072265626,-1.008575439453125,-0.30133056640625,-0.002593994140625
1760107160801115100,10.416115234375,-0.9912872314453125,-0.2763519287109375,0.018890380859375
1760107160811180000,10.426179931640625,-0.982391357421875,-0.2601318359375,0.047607421875
1760107160821246000,10.436245849609374,-0.98016357421875,-0.2506866455078125,0.0782928466796875
1760107160831311000,10.44631103515625,-0.980743408203125,-0.2400970458984375,0.1003570556640625
1760107160841377000,10.456376953125,-0.97210693359375,-0.2284698486328125,0.09710693359375
1760107160851442200,10.466442138671875,-0.9588623046875,-0.230072021484375,0.0865020751953125
1760107160861506800,10.4765068359375,-0.92572021484375,-0.2455596923828125,0.0724029541015625
1760107160871573000,10.486572998046874,-0.8815155029296875,-0.265533447265625,0.0614166259765625
1760107160881638100,10.49663818359375,-0.8425445556640625,-0.275726318359375,0.0509033203125
1760107160891704000,10.5067041015625,-0.821685791015625,-0.28057861328125,0.0403289794921875
1760107160901769000,10.51676904296875,-0.81610107421875,-0.2810211181640625,0.0370330810546875
1760107160911835000,10.5268349609375,-0.81878662109375,-0.2763671875,0.039520263671875
1760107160921900000,10.536900146484374,-0.8265533447265625,-0.26904296875,0.0371856689453125
1760107160931965200,10.546965087890625,-0.8434600830078125,-0.2629547119140625,0.0335845947265625
1760107160942030800,10.55703076171875,-0.8752899169921875,-0.2604522705078125,0.021453857421875
1760107160952096000,10.567095947265624,-0.9199981689453125,-0.2628936767578125,-0.0033721923828125
1760107160962162000,10.577161865234375,-0.958282470703125,-0.2726287841796875,-0.0282440185546875
1760107160972227000,10.58722705078125,-0.9751434326171875,-0.2819061279296875,-0.03680419921875
1760107160982293200,10.597293212890625,-0.9702911376953125,-0.2838897705078125,-0.0342559814453125
1760107160992358000,10.60735791015625,-0.947509765625,-0.2803192138671875,-0.0189361572265625
1760107161002424000,10.617424072265624,-0.913787841796875,-0.2806549072265625,0.003936767578125
1760107161012489000,10.627489013671875,-0.8726654052734375,-0.2879486083984375,0.0230712890625
1760107161022553900,10.637553955078126,-0.835662841796875,-0.2987213134765625,0.0318603515625
1760107161032620000,10.6476201171875,-0.8115386962890625,-0.3110504150390625,0.0323333740234375
1760107161042685000,10.657684814453125,-0.80609130859375,-0.325714111328125,0.0265350341796875
1760107161052751000,10.667751220703124,-0.8189697265625,-0.3358612060546875,0.0179290771484375
1760107161062816000,10.67781591796875,-0.8427734375,-0.3353424072265625,0.01165771484375
1760107161072882000,10.6878818359375,-0.866668701171875,-0.326934814453125,0.012176513671875
1760107161082947000,10.697947021484374,-0.8855743408203125,-0.3202056884765625,0.0131683349609375
1760107161093012000,10.708011962890625,-0.899688720703125,-0.3167724609375,0.0169830322265625
1760107161103078100,10.718078125,-0.9088592529296875,-0.316925048828125,0.0176544189453125
1760107161113143000,10.72814306640625,-0.910491943359375,-0.319366455078125,0.0137939453125
1760107161123209000,10.738208984375,-0.910400390625,-0.32562255859375,0.0008392333984375
1760107161133274000,10.748274169921874,-0.9149322509765625,-0.33538818359375,-0.015625
1760107161143340000,10.758340087890625,-0.927886962890625,-0.345062255859375,-0.027313232421875
1760107161153405000,10.768405029296876,-0.9439697265625,-0.351318359375,-0.0232696533203125
1760107161163471000,10.77847119140625,-0.950775146484375,-0.348052978515625,-0.0121917724609375
1760107161173536000,10.788535888671875,-0.94915771484375,-0.3394775390625,-0.0063629150390625
1760107161183601000,10.798600830078126,-0.9430389404296875,-0.337615966796875,-0.0040130615234375
1760107161193667000,10.8086669921875,-0.9295196533203125,-0.345367431640625,-0.0095977783203125
1760107161203732200,10.818732177734375,-0.91180419921875,-0.360260009765625,-0.0238037109375
1760107161213798400,10.82879833984375,-0.9032440185546875,-0.3751220703125,-0.0457763671875
1760107161223863300,10.83886328125,-0.9141082763671875,-0.383514404296875,-0.0654144287109375
1760107161233929200,10.84892919921875,-0.940399169921875,-0.38360595703125,-0.076019287109375
1760107161243994000,10.858994140625,-0.9703521728515625,-0.3740386962890625,-0.0788116455078125
1760107161254059300,10.869059326171875,-0.9958038330078125,-0.362396240234375,-0.0769805908203125
1760107161264125400,10.87912548828125,-1.0209197998046875,-0.3534088134765625,-0.0789947509765625
1760107161274190000,10.889190185546875,-1.0476837158203125,-0.3491668701171875,-0.08441162109375
1760107161284256300,10.89925634765625,-1.063079833984375,-0.3438720703125,-0.08123779296875
1760107161294321400,10.9093212890625,-1.06591796875,-0.34124755859375,-0.0734405517578125
1760107161304387300,10.91938720703125,-1.0653228759765625,-0.3440093994140625,-0.053192138671875
1760107161314452200,10.9294521484375,-1.0556640625,-0.350799560546875,-0.015899658203125
1760107161324518100,10.93951806640625,-1.0361175537109375,-0.355224609375,0.028045654296875
1760107161334583300,10.949583251953126,-1.0175323486328125,-0.3543701171875,0.0516815185546875
1760107161344648400,10.9596484375,-1.01385498046875,-0.3509979248046875,0.0527191162109375
1760107161354714000,10.969714111328125,-1.028076171875,-0.3535308837890625,0.04119873046875
1760107161364779300,10.979779296875,-1.0474395751953125,-0.3590087890625,0.02752685546875
1760107161374845200,10.98984521484375,-1.05133056640625,-0.3549652099609375,0.010772705078125
1760107161384910300,10.999910400390625,-1.0332794189453125,-0.3334808349609375,-0.0212249755859375
1760107161394976300,11.009976318359374,-1.0227203369140625,-0.3096771240234375,-0.0518646240234375
1760107161405041200,11.020041259765625,-1.028778076171875,-0.29345703125,-0.0579986572265625
1760107161415107300,11.030107421875,-1.0496978759765625,-0.2895050048828125,-0.04669189453125
1760107161425172200,11.040172119140625,-1.0806121826171875,-0.2775115966796875,-0.0345306396484375
1760107161435237000,11.050237060546875,-1.1156463623046875,-0.255218505859375,-0.0386199951171875
1760107161445303300,11.06030322265625,-1.1379547119140625,-0.2449188232421875,-0.043426513671875
1760107161455368200,11.0703681640625,-1.1395263671875,-0.2458038330078125,-0.026123046875
1760107161465434400,11.080434326171876,-1.1116943359375,-0.2487030029296875,-0.004302978515625
1760107161475499300,11.090499267578124,-1.0502777099609375,-0.2572174072265625,0.015655517578125
1760107161485565200,11.100565185546875,-0.97100830078125,-0.2689361572265625,0.0252685546875
1760107161495630300,11.11063037109375,-0.900787353515625,-0.28472900390625,0.0273590087890625
1760107161505695200,11.1206953125,-0.852752685546875,-0.3010711669921875,0.028778076171875
1760107161515761400,11.130761474609375,-0.8263397216796875,-0.310791015625,0.025421142578125
1760107161525826300,11.140826416015624,-0.8157806396484375,-0.31402587890625,0.0159149169921875
1760107161535892200,11.150892333984375,-0.820892333984375,-0.3133697509765625,0.006072998046875
1760107161545957400,11.160957275390626,-0.8311004638671875,-0.302825927734375,-0.0028076171875
1760107161556023300,11.171023193359375,-0.8449554443359375,-0.2918243408203125,-0.005157470703125
1760107161566088200,11.181088134765625,-0.8623504638671875,-0.2899932861328125,-0.005035400390625
1760107161576154000,11.191154052734374,-0.8682098388671875,-0.2866058349609375,-0.0144195556640625
1760107161586219300,11.20121923828125,-0.871673583984375,-0.2867889404296875,-0.02447509765625
1760107161596284200,11.2112841796875,-0.88543701171875,-0.291351318359375,-0.033172607421875
1760107161606350000,11.22135009765625,-0.91912841796875,-0.292388916015625,-0.0353546142578125
1760107161616415200,11.231415283203125,-0.970458984375,-0.2863922119140625,-0.02435302734375
1760107161626481400,11.2414814453125,-1.02130126953125,-0.27630615234375,-0.00970458984375
1760107161636546300,11.25154638671875,-1.0658416748046875,-0.262115478515625,0.0147857666015625
1760107161646612200,11.2616123046875,-1.0901641845703125,-0.2484893798828125,0.041534423828125
1760107161656677000,11.271677001953124,-1.091796875,-0.23895263671875,0.065093994140625
1760107161666742300,11.2817421875,-1.073577880859375,-0.2380828857421875,0.0764312744140625
1760107161676808400,11.291808349609376,-1.0401611328125,-0.2480316162109375,0.075775146484375
1760107161686873000,11.301873046875,-0.9901580810546875,-0.2678985595703125,0.0639190673828125
1760107161696939300,11.311939208984375,-0.928619384765625,-0.29150390625,0.042755126953125
1760107161707004400,11.32200439453125,-0.872894287109375,-0.31402587890625,0.0216522216796875
1760107161717070300,11.3320703125,-0.8392486572265625,-0.3338470458984375,0.0081787109375
1760107161727135200,11.34213525390625,-0.8231048583984375,-0.344329833984375,0.0077667236328125
1760107161737200400,11.352200439453124,-0.81494140625,-0.3481597900390625,0.006378173828125
1760107161747266300,11.362266357421875,-0.813232421875,-0.3493804931640625,0.0038604736328125
1760107161757331500,11.37233154296875,-0.8158721923828125,-0.3516998291015625,-0.0034332275390625
1760107161767397000,11.382397216796875,-0.8245697021484375,-0.3567047119140625,-0.012054443359375
1760107161777462300,11.392462158203125,-0.8394317626953125,-0.36077880859375,-0.022369384765625
1760107161787528200,11.402528076171874,-0.8590087890625,-0.3636016845703125,-0.030029296875
1760107161797593300,11.41259326171875,-0.8750762939453125,-0.361907958984375,-0.0350799560546875
1760107161807659300,11.4226591796875,-0.8849945068359375,-0.356048583984375,-0.03662109375
1760107161817724200,11.43272412109375,-0.885650634765625,-0.352294921875,-0.0326385498046875
1760107161827789300,11.442789306640625,-0.8823699951171875,-0.3524932861328125,-0.025787353515625
1760107161837855200,11.452855224609374,-0.8840179443359375,-0.3534698486328125,-0.0171356201171875
1760107161847920000,11.462920166015625,-0.8875732421875,-0.351348876953125,-0.011505126953125
1760107161857986300,11.472986328125,-0.8918304443359375,-0.34765625,-0.00836181640625
1760107161868051200,11.48305126953125,-0.895355224609375,-0.3510589599609375,-0.00909423828125
1760107161878117400,11.493117431640625,-0.902130126953125,-0.3585052490234375,-0.0053253173828125
1760107161888182300,11.503182373046876,-0.9118499755859375,-0.36370849609375,-0.0035247802734375
1760107161898247200,11.5132470703125,-0.92376708984375,-0.365753173828125,-0.0037078857421875
1760107161908313300,11.523313232421875,-0.9340667724609375,-0.363037109375,-0.002410888671875
1760107161918378200,11.533378173828124,-0.9430389404296875,-0.355255126953125,0.011199951171875
1760107161928444200,11.543444091796875,-0.960784912109375,-0.3471221923828125,0.03289794921875
1760107161938509300,11.55350927734375,-0.9845733642578125,-0.3414306640625,0.0489501953125
1760107161948575200,11.5635751953125,-1.0122222900390625,-0.330474853515625,0.0521240234375
1760107161958640400,11.573640380859375,-1.034942626953125,-0.323211669921875,0.0451202392578125
1760107161968705300,11.583705322265626,-1.0583343505859375,-0.32421875,0.0324554443359375
1760107161978771200,11.593771240234375,-1.0729827880859375,-0.3288116455078125,0.0178375244140625
1760107161988836400,11.60383642578125,-1.0832672119140625,-0.327239990234375,0.01123046875
1760107161998902300,11.61390234375,-1.106689453125,-0.3265838623046875,0.004180908203125
1760107162008967200,11.62396728515625,-1.1307220458984375,-0.33135986328125,0.0029449462890625
1760107162019033000,11.634033203125,-1.1247406005859375,-0.33636474609375,0.0143585205078125
1760107162029098200,11.64409814453125,-1.097747802734375,-0.332366943359375,0.0290679931640625
1760107162039164400,11.654164306640626,-1.0615692138671875,-0.328948974609375,0.053314208984375
1760107162049229000,11.66422900390625,-1.021636962890625,-0.3331146240234375,0.0862884521484375
1760107162059294200,11.674294189453125,-0.9871673583984375,-0.3352203369140625,0.113311767578125
1760107162069360400,11.6843603515625,-0.9800262451171875,-0.3286285400390625,0.1248931884765625
1760107162079425300,11.69442529296875,-1.0095977783203125,-0.3166351318359375,0.1243133544921875
1760107162089491500,11.704491455078125,-1.069976806640625,-0.3086700439453125,0.1158294677734375
1760107162099556000,11.71455615234375,-1.1205291748046875,-0.2912445068359375,0.098388671875
1760107162109622300,11.724622314453125,-1.1517333984375,-0.278167724609375,0.094268798828125
1760107162119687400,11.7346875,-1.1674346923828125,-0.2668304443359375,0.0936431884765625
1760107162129752000,11.744751953125,-1.1745452880859375,-0.25848388671875,0.080657958984375
1760107162139818200,11.754818359375,-1.1719207763671875,-0.2524871826171875,0.059661865234375
1760107162149883400,11.76488330078125,-1.160247802734375,-0.2496795654296875,0.045318603515625
1760107162159949300,11.77494921875,-1.1276397705078125,-0.2428436279296875,0.04705810546875
1760107162170014500,11.785014404296875,-1.073699951171875,-0.2381439208984375,0.0594635009765625
1760107162180080000,11.795080078125,-1.00439453125,-0.2389678955078125,0.0732879638671875
1760107162190145300,11.805145263671875,-0.9412841796875,-0.2500152587890625,0.074188232421875
1760107162200210400,11.81521044921875,-0.8893585205078125,-0.2696533203125,0.0583953857421875
1760107162210276400,11.8252763671875,-0.8456573486328125,-0.292724609375,0.04052734375
1760107162220341500,11.835341552734375,-0.8115081787109375,-0.3101654052734375,0.02239990234375
1760107162230407400,11.845407470703124,-0.794891357421875,-0.321258544921875,0.007843017578125
1760107162240472300,11.855472412109375,-0.7946624755859375,-0.3278961181640625,-0.0000762939453125
1760107162250538200,11.865538330078126,-0.8040008544921875,-0.3244781494140625,-0.0041656494140625
1760107162260603400,11.875603271484374,-0.82440185546875,-0.3141632080078125,-0.0150299072265625
1760107162270669600,11.885669677734375,-0.858795166015625,-0.305694580078125,-0.0255279541015625
1760107162280734200,11.895734130859376,-0.89251708984375,-0.3002777099609375,-0.0383148193359375
1760107162290799400,11.90579931640625,-0.9128875732421875,-0.2911224365234375,-0.0489044189453125
1760107162300865500,11.915865478515625,-0.9226226806640625,-0.2827606201171875,-0.0538177490234375
1760107162310930400,11.925930419921874,-0.9302520751953125,-0.2799224853515625,-0.0495758056640625
1760107162320996400,11.935996337890625,-0.93719482421875,-0.278350830078125,-0.0288848876953125
1760107162331061200,11.946061279296876,-0.94146728515625,-0.2707977294921875,-0.0030517578125
1760107162341127400,11.95612744140625,-0.9500274658203125,-0.26312255859375,0.021942138671875
1760107162351192600,11.966192626953125,-0.9551239013671875,-0.255157470703125,0.0389404296875
1760107162361257200,11.97625732421875,-0.950103759765625,-0.2476806640625,0.0453643798828125
1760107162371323400,11.986323486328125,-0.9359893798828125,-0.249755859375,0.03778076171875
1760107162381388500,11.996388427734376,-0.908416748046875,-0.2669677734375,0.0187225341796875
1760107162391454500,12.006454345703125,-0.8766021728515625,-0.287353515625,0.0007171630859375
1760107162401519400,12.016519287109375,-0.8550872802734375,-0.30267333984375,-0.0105743408203125
1760107162411585300,12.026585205078124,-0.8425445556640625,-0.3091888427734375,-0.0097808837890625
1760107162421650400,12.036650390625,-0.8434295654296875,-0.3090362548828125,-0.0030670166015625
1760107162431715600,12.046715576171875,-0.85772705078125,-0.305633544921875,0.006317138671875
1760107162441781200,12.05678125,-0.8735809326171875,-0.2975616455078125,0.0106964111328125
1760107162451846400,12.066846435546875,-0.893829345703125,-0.290283203125,0.0098419189453125
1760107162461912300,12.076912353515626,-0.9137420654296875,-0.2890777587890625,0.00213623046875
1760107162471977500,12.0869775390625,-0.9283447265625,-0.29547119140625,-0.0118255615234375
1760107162482043400,12.09704345703125,-0.9320220947265625,-0.313873291015625,-0.016754150390625
1760107162492108300,12.1071083984375,-0.9257354736328125,-0.3233642578125,-0.0207061767578125
1760107162502173400,12.11717333984375,-0.9176177978515625,-0.3267364501953125,-0.01837158203125
1760107162512239400,12.1272392578125,-0.9129180908203125,-0.3289947509765625,-0.01171875
1760107162522304300,12.13730419921875,-0.9095916748046875,-0.3340606689453125,-0.0088653564453125
1760107162532370400,12.147370361328125,-0.9119110107421875,-0.3393096923828125,-0.016265869140625
1760107162542435300,12.157435302734376,-0.9211883544921875,-0.3434906005859375,-0.0320587158203125
1760107162552501500,12.16750146484375,-0.929168701171875,-0.3473968505859375,-0.0426788330078125
1760107162562566400,12.17756640625,-0.9395904541015625,-0.3473663330078125,-0.0494537353515625
1760107162572631300,12.18763134765625,-0.9584503173828125,-0.3444061279296875,-0.053009033203125
1760107162582697500,12.197697509765625,-0.993499755859375,-0.3384857177734375,-0.0460052490234375
1760107162592762400,12.207762451171876,-1.0415496826171875,-0.3226470947265625,-0.0395355224609375
1760107162602828500,12.21782861328125,-1.0827484130859375,-0.3043975830078125,-0.0325469970703125
1760107162612893400,12.2278935546875,-1.1243743896484375,-0.2971038818359375,-0.01702880859375
1760107162622959400,12.23795947265625,-1.1363372802734375,-0.29803466796875,-0.0046234130859375
1760107162633024500,12.2480244140625,-1.1051177978515625,-0.3104095458984375,0.0147552490234375
1760107162643089400,12.25808935546875,-1.042724609375,-0.32623291015625,0.0302276611328125
1760107162653155300,12.2681552734375,-0.97784423828125,-0.3422698974609375,0.0467987060546875
1760107162663220500,12.278220458984375,-0.9357757568359375,-0.3495330810546875,0.0504302978515625
1760107162673286400,12.288286376953126,-0.915802001953125,-0.351470947265625,0.0465087890625
1760107162683351300,12.298351318359375,-0.9156341552734375,-0.3510589599609375,0.0329742431640625
1760107162693417200,12.308417236328125,-0.9275665283203125,-0.3463897705078125,0.0140380859375
1760107162703482400,12.318482421875,-0.9456329345703125,-0.333099365234375,-0.01031494140625
1760107162713547500,12.328547607421875,-0.9680023193359375,-0.3120269775390625,-0.0339202880859375
1760107162723613400,12.338613525390626,-1.000213623046875,-0.2884521484375,-0.052734375
1760107162733678300,12.34867822265625,-1.0354156494140625,-0.26715087890625,-0.0495147705078125
1760107162743744300,12.358744140625,-1.0825653076171875,-0.232177734375,-0.0347747802734375
1760107162753809400,12.368809326171874,-1.122802734375,-0.195159912109375,-0.0243988037109375
1760107162763875600,12.37887548828125,-1.1418609619140625,-0.173675537109375,-0.023712158203125
1760107162773940200,12.388940185546875,-1.12982177734375,-0.173980712890625,-0.0168914794921875
1760107162784005400,12.39900537109375,-1.087310791015625,-0.191314697265625,0.004913330078125
1760107162794071600,12.409071533203125,-1.030853271484375,-0.2111358642578125,0.0366668701171875
1760107162804136200,12.41913623046875,-0.985198974609375,-0.2240753173828125,0.058380126953125
1760107162814202400,12.429202392578125,-0.9604644775390625,-0.2315826416015625,0.06640625
1760107162824267300,12.439267333984375,-0.9512176513671875,-0.2342071533203125,0.0699615478515625
1760107162834333400,12.44933349609375,-0.9521942138671875,-0.234588623046875,0.0641021728515625
1760107162844398600,12.459398681640625,-0.952606201171875,-0.2331085205078125,0.05328369140625
1760107162854463200,12.469463134765626,-0.9564361572265625,-0.2299041748046875,0.0421905517578125
1760107162864529400,12.479529296875,-0.9576416015625,-0.22686767578125,0.0275726318359375
1760107162874594600,12.489594482421875,-0.9522705078125,-0.235595703125,0.0055389404296875
1760107162884660500,12.499660400390624,-0.9480438232421875,-0.2514495849609375,-0.0204010009765625
1760107162894725400,12.509725341796875,-0.951904296875,-0.2659759521484375,-0.0451202392578125
1760107162904791300,12.519791259765626,-0.968017578125,-0.2737884521484375,-0.0527801513671875
1760107162914856400,12.5298564453125,-0.9991912841796875,-0.2780609130859375,-0.05731201171875
1760107162924921300,12.53992138671875,-1.02239990234375,-0.27337646484375,-0.058380126953125
1760107162934987300,12.5499873046875,-1.0310821533203125,-0.2672271728515625,-0.052490234375
1760107162945052400,12.560052490234375,-1.025390625,-0.2707672119140625,-0.0436248779296875
1760107162955118300,12.570118408203125,-1.013336181640625,-0.27301025390625,-0.0246734619140625
1760107162965183500,12.58018359375,-0.9961090087890625,-0.2664031982421875,0.0034942626953125
1760107162975249400,12.59024951171875,-0.9643402099609375,-0.2559051513671875,0.0303497314453125
1760107162985314300,12.600314208984376,-0.9258270263671875,-0.2481689453125,0.05120849609375
1760107162995379500,12.61037939453125,-0.8891143798828125,-0.2522735595703125,0.0548858642578125
1760107163005445400,12.6204453125,-0.856719970703125,-0.27081298828125,0.04486083984375
1760107163015510300,12.63051025390625,-0.8273773193359375,-0.2958526611328125,0.033905029296875
1760107163025576400,12.640576416015625,-0.8115997314453125,-0.3126983642578125,0.0243988037109375
1760107163035641300,12.650641357421875,-0.8115692138671875,-0.3178558349609375,0.0183258056640625
1760107163045707500,12.66070751953125,-0.818603515625,-0.3167266845703125,0.02215576171875
1760107163055772400,12.6707724609375,-0.8249359130859375,-0.31060791015625,0.0389404296875
1760107163065837300,12.68083740234375,-0.84222412109375,-0.308380126953125,0.0497894287109375
1760107163075903500,12.690903564453125,-0.876129150390625,-0.309722900390625,0.04931640625
1760107163085968400,12.700968505859375,-0.904876708984375,-0.312408447265625,0.038055419921875
1760107163096034300,12.711034423828124,-0.9207763671875,-0.3180999755859375,0.0214385986328125
1760107163106099500,12.721099365234375,-0.91925048828125,-0.3282012939453125,0.006988525390625
1760107163116165400,12.731165283203126,-0.9001312255859375,-0.340606689453125,0.0009613037109375
1760107163126230500,12.74123046875,-0.883758544921875,-0.34820556640625,-0.003692626953125
1760107163136295400,12.75129541015625,-0.88348388671875,-0.345977783203125,-0.0080108642578125
1760107163146361300,12.761361328125,-0.899932861328125,-0.335601806640625,0.000030517578125
1760107163156426500,12.771426513671875,-0.9275054931640625,-0.324981689453125,0.02459716796875
1760107163166492400,12.781492431640626,-0.957061767578125,-0.31475830078125,0.04742431640625
1760107163176557300,12.791557373046874,-0.975494384765625,-0.309539794921875,0.0549774169921875
1760107163186623200,12.801623291015625,-0.9780426025390625,-0.313385009765625,0.0564422607421875
1760107163196689000,12.81168896484375,-0.9588623046875,-0.3285064697265625,0.0533599853515625
1760107163206754000,12.821754150390625,-0.927398681640625,-0.34881591796875,0.0386810302734375
1760107163216820000,12.831820068359375,-0.9051055908203125,-0.3679962158203125,0.0129241943359375
1760107163226884900,12.841884765625,-0.9004058837890625,-0.3834991455078125,-0.004241943359375
1760107163236950800,12.85195068359375,-0.9215240478515625,-0.3881072998046875,-0.0018310546875
1760107163247016000,12.862015869140626,-0.9685211181640625,-0.3767547607421875,0.013946533203125
1760107163257082000,12.87208203125,-1.030975341796875,-0.356231689453125,0.02783203125
1760107163267146800,12.882146728515625,-1.083099365234375,-0.337005615234375,0.0337371826171875
1760107163277212000,12.8922119140625,-1.1111907958984375,-0.332794189453125,0.0341796875
1760107163287277800,12.90227783203125,-1.1349029541015625,-0.3318023681640625,0.0396270751953125
1760107163297342700,12.9123427734375,-1.138702392578125,-0.3423309326171875,0.0335540771484375
1760107163307409000,12.922408935546875,-1.1294097900390625,-0.34820556640625,0.040679931640625
1760107163317473800,12.932473876953125,-1.10546875,-0.3477630615234375,0.051025390625
