time,seconds_elapsed,z,y,x
1760107150452548900,0.067548828125,0.29359814524650574,-0.09521660208702087,-0.558059811592102
1760107150462614800,0.07761474609375,0.345647394657135,0.05754971504211426,-0.509469211101532
1760107150472680000,0.087679931640625,0.34288489818573,0.2366723269224167,-0.42245760560035706
1760107150482745900,0.097745849609375,0.30047884583473206,0.32420527935028076,-0.3298439383506775
1760107150492810800,0.107810791015625,0.23581436276435852,0.2963102459907532,-0.2482987344264984
1760107150502876700,0.117876708984375,0.18871894478797913,0.1947697550058365,-0.1713162362575531
1760107150512941800,0.12794189453125,0.15921297669410706,0.08617056906223297,-0.10634522140026093
1760107150523007700,0.1380078125,0.14412254095077515,-0.004516054876148701,-0.05508175119757652
1760107150533072600,0.14807275390625,0.13849927484989166,-0.06945350766181946,-0.0145380524918437
1760107150543138800,0.158138916015625,0.13586968183517456,-0.1241779625415802,0.0073150089010596275
1760107150553203700,0.16820361328125,0.11122770607471466,-0.1757977306842804,0.02360343374311924
1760107150563270000,0.178269775390625,0.07359704375267029,-0.20054155588150024,0.02274567261338234
1760107150573334800,0.188334716796875,0.017300475388765335,-0.17511795461177826,0.0010531606385484338
1760107150583400700,0.198400634765625,-0.042372021824121475,-0.13473492860794067,-0.04812721163034439
1760107150593465900,0.2084658203125,-0.08132980018854141,-0.09500350803136826,-0.13550259172916412
1760107150603531800,0.21853173828125,-0.07871583104133606,-0.06093819439411163,-0.24565716087818146
1760107150613597000,0.228596923828125,-0.049983780831098557,-0.009247038513422012,-0.35551920533180237
1760107150623662600,0.23866259765625,-0.006942597217857838,0.03488274663686752,-0.43505197763442993
1760107150633727700,0.248727783203125,0.030393054708838463,0.07275795936584473,-0.44909533858299255
1760107150643794000,0.2587939453125,0.05851605162024498,0.11914055049419403,-0.3924647867679596
1760107150653858800,0.26885888671875,0.0834304615855217,0.17165622115135193,-0.28579798340797424
1760107150663924700,0.2789248046875,0.11663782596588135,0.19915325939655304,-0.15165327489376068
1760107150673990000,0.288989990234375,0.14724020659923553,0.20667216181755066,-0.01517053134739399
1760107150684055800,0.299055908203125,0.15750284492969513,0.18385672569274902,0.09861406683921814
1760107150694121000,0.309120849609375,0.13893769681453705,0.13582395017147064,0.1713244915008545
1760107150704187000,0.319186767578125,0.09520315378904343,0.07490909844636917,0.19607001543045044
1760107150714251800,0.329251708984375,0.06738057732582092,0.033841557800769806,0.17466938495635986
1760107150724317700,0.339317626953125,0.04871471971273422,0.0026659416034817696,0.11379712074995041
1760107150734382800,0.3493828125,0.05254194885492325,-0.022491876035928726,0.028329888358712196
1760107150744449000,0.359448974609375,0.07397128641605377,-0.0021426035091280937,-0.06522243469953537
1760107150754513700,0.369513671875,0.08644020557403564,0.05082234367728233,-0.16252341866493225
1760107150764579800,0.379579833984375,0.08799204975366592,0.07838113605976105,-0.2572000324726105
1760107150774644700,0.389644775390625,0.06144139543175697,0.05824710801243782,-0.35398435592651367
1760107150784711000,0.3997109375,0.026907389983534813,-0.018888158723711967,-0.4418284595012665
1760107150794775800,0.40977587890625,0.022523827850818634,-0.14015759527683258,-0.5188795924186707
1760107150804841700,0.419841796875,0.05896759033203125,-0.2981890141963959,-0.567565381526947
1760107150814907000,0.429906982421875,0.10421842336654663,-0.36261966824531555,-0.5647410750389099
1760107150824972800,0.439972900390625,0.12671788036823273,-0.29890888929367065,-0.5254325270652771
1760107150835037700,0.45003759765625,0.11764369159936905,-0.2066548615694046,-0.46402376890182495
1760107150845103600,0.460103515625,0.09854144603013992,-0.06616431474685669,-0.38991981744766235
1760107150855168800,0.470168701171875,0.08647120743989944,0.1168646290898323,-0.3163374662399292
1760107150865235000,0.48023486328125,0.07789976894855499,0.2047567218542099,-0.2821888327598572
1760107150875299600,0.490299560546875,0.08238506317138672,0.09287812560796738,-0.2667265236377716
1760107150885365800,0.50036572265625,0.12838050723075867,-0.10472166538238525,-0.23121494054794312
1760107150895431000,0.510430908203125,0.20251278579235077,-0.28141337633132935,-0.14748729765415192
1760107150905496800,0.520496826171875,0.2659859359264374,-0.3741980195045471,-0.029747629538178444
1760107150915562000,0.53056201171875,0.3095802962779999,-0.38495051860809326,0.11202308535575867
1760107150925627600,0.540627685546875,0.3237003982067108,-0.3163936734199524,0.2586253583431244
1760107150935692800,0.55069287109375,0.3111390769481659,-0.17942065000534058,0.3847009837627411
1760107150945758700,0.5607587890625,0.2764771282672882,-0.01796124130487442,0.48055365681648254
1760107150955823900,0.570823974609375,0.23583249747753143,0.1292220950126648,0.5269515514373779
1760107150965889800,0.580889892578125,0.21397322416305542,0.20626646280288696,0.5184337496757507
1760107150975954700,0.59095458984375,0.20633208751678467,0.24293553829193115,0.46489864587783813
1760107150986020900,0.601020751953125,0.20765835046768188,0.24598367512226105,0.36902573704719543
1760107150996085800,0.611085693359375,0.21249333024024963,0.20775160193443298,0.24087920784950256
1760107151006152000,0.62115185546875,0.22546987235546112,0.1443868726491928,0.09965083748102188
1760107151016216800,0.631216796875,0.22268526256084442,0.1413271576166153,-0.03796641156077385
1760107151026282800,0.64128271484375,0.19369611144065857,0.16468028724193573,-0.167197123169899
1760107151036348000,0.651347900390625,0.15932190418243408,0.17424316704273224,-0.2702491879463196
1760107151046413800,0.661413818359375,0.13410009443759918,0.2201695293188095,-0.3311176896095276
1760107151056478700,0.671478759765625,0.1349981129169464,0.3162153661251068,-0.3491060137748718
1760107151066545000,0.681544921875,0.1490056961774826,0.40452277660369873,-0.33223333954811096
1760107151076609800,0.69160986328125,0.19027510285377502,0.47191086411476135,-0.2834799289703369
1760107151086676000,0.701676025390625,0.22402048110961914,0.514883816242218,-0.22108139097690582
1760107151096740600,0.71174072265625,0.25918829441070557,0.5336104035377502,-0.1522219032049179
1760107151106806800,0.721806884765625,0.29109564423561096,0.4875822961330414,-0.09139943867921829
1760107151116872000,0.731871826171875,0.31971052289009094,0.38050776720046997,-0.03109482303261757
1760107151126937900,0.741937744140625,0.35657384991645813,0.25093981623649597,0.03597238287329674
1760107151137002800,0.752002685546875,0.3944104313850403,0.12985838949680328,0.13274766504764557
1760107151147068700,0.762068603515625,0.4121757745742798,0.04082593321800232,0.25000515580177307
1760107151157133800,0.7721337890625,0.4012211263179779,0.004287363961338997,0.372917503118515
1760107151167199700,0.78219970703125,0.3534225821495056,0.00026634521782398224,0.4745089113712311
1760107151177264600,0.7922646484375,0.2852964997291565,-0.01828337088227272,0.543289303779602
1760107151187330800,0.802330810546875,0.2271353304386139,-0.004798632115125656,0.5797325968742371
1760107151197395500,0.8123955078125,0.200454980134964,0.06262089312076569,0.5745237469673157
1760107151207461600,0.822461669921875,0.2380644828081131,0.21284395456314087,0.45206189155578613
1760107151217526800,0.83252685546875,0.29809507727622986,0.22025740146636963,0.3038439452648163
1760107151227592700,0.8425927734375,0.3555810749530792,0.19994281232357025,0.19233167171478271
1760107151237657900,0.852657958984375,0.38444629311561584,0.2677359879016876,0.07883626967668533
1760107151247723500,0.8627236328125,0.3583236634731293,0.3321996033191681,-0.027074983343482018
1760107151257788700,0.87278857421875,0.31113937497138977,0.32883790135383606,-0.1157689020037651
1760107151267854600,0.8828544921875,0.2637510299682617,0.3377920389175415,-0.16759029030799866
1760107151277919700,0.892919677734375,0.23277553915977478,0.3284238278865814,-0.17602291703224182
1760107151287985700,0.902985595703125,0.200857013463974,0.29074469208717346,-0.1589299887418747
1760107151298050600,0.913050537109375,0.17019815742969513,0.2252570241689682,-0.13589417934417725
1760107151308116700,0.92311669921875,0.1435963213443756,0.10648863017559052,-0.11424296349287033
1760107151318181600,0.933181640625,0.1178765818476677,-0.020170778036117554,-0.07883250713348389
1760107151328247800,0.943247802734375,0.09365081787109375,-0.09088292717933655,-0.014184319414198399
1760107151338312700,0.953312744140625,0.07296231389045715,-0.11290247738361359,0.08914951980113983
1760107151348378600,0.963378662109375,0.06631731986999512,-0.09087809175252914,0.20985767245292664
1760107151358443800,0.97344384765625,0.0897909551858902,0.0002803141251206398,0.318584680557251
1760107151368509700,0.983509765625,0.13960833847522736,0.09173742681741714,0.39173567295074463
1760107151378574600,0.99357470703125,0.19697043299674988,0.1488177627325058,0.3992372751235962
1760107151388640800,1.003640869140625,0.2453187257051468,0.16420765221118927,0.3440121114253998
1760107151398705700,1.01370556640625,0.27390483021736145,0.13385534286499023,0.24574759602546692
1760107151408771800,1.023771728515625,0.2846239507198334,0.08355864882469177,0.14254111051559448
1760107151418836500,1.03383642578125,0.2882000505924225,0.056791216135025024,0.05946939438581467
1760107151428902700,1.043902587890625,0.29277050495147705,0.050515901297330856,0.023627424612641335
1760107151438967800,1.0539677734375,0.2936839461326599,0.04161455109715462,0.01951523683965206
1760107151449033700,1.06403369140625,0.2885858118534088,0.026986274868249893,0.039093874394893646
1760107151459098600,1.0740986328125,0.26951703429222107,0.010360159911215305,0.0777382031083107
1760107151469164500,1.08416455078125,0.23803091049194336,-0.024950828403234482,0.111100934445858
1760107151479229700,1.094229736328125,0.20632943511009216,-0.08696147054433823,0.1255376636981964
1760107151489295600,1.104295654296875,0.17921686172485352,-0.15204870700836182,0.11997763067483902
1760107151499360500,1.114360595703125,0.1400819718837738,-0.17903372645378113,0.06669683009386063
1760107151509426700,1.1244267578125,0.10067996382713318,-0.1688118726015091,-0.018719909712672234
1760107151519491600,1.13449169921875,0.10283100605010986,-0.13155902922153473,-0.10652273148298264
1760107151529557800,1.144557861328125,0.12124044448137283,-0.07974264025688171,-0.18416893482208252
1760107151539623700,1.154623779296875,0.13496558368206024,-0.0453372597694397,-0.23852191865444183
1760107151549688600,1.1646884765625,0.1315191388130188,-0.006493669934570789,-0.2708990275859833
1760107151559753700,1.174753662109375,0.11920307576656342,0.03521382808685303,-0.2691109776496887
1760107151569819600,1.184819580078125,0.10024384409189224,0.05238116532564163,-0.24258817732334137
1760107151579884800,1.194884765625,0.07867516577243805,0.05917622148990631,-0.19613732397556305
1760107151589950500,1.204950439453125,0.0473603717982769,0.042517177760601044,-0.15095128118991852
1760107151600015600,1.215015625,0.01407565362751484,0.0009737284854054451,-0.10515743494033813
1760107151610081800,1.225081787109375,0.000786823220551014,-0.019637741148471832,-0.079891636967659
1760107151620146700,1.235146728515625,0.0074654980562627316,-0.020135752856731415,-0.061704106628894806
1760107151630212900,1.245212890625,0.027631141245365143,-0.00931512750685215,-0.06330585479736328
1760107151640277500,1.255277587890625,0.05401907488703728,0.0034541962668299675,-0.07334544509649277
1760107151650343700,1.26534375,0.0726533830165863,0.03379698842763901,-0.08541671186685562
1760107151660408800,1.275408935546875,0.08072755485773087,0.06046002358198166,-0.08727560192346573
1760107151670474800,1.285474853515625,0.06629996001720428,0.060442209243774414,-0.07686035335063934
1760107151680540700,1.295540771484375,0.04314057528972626,0.04268638417124748,-0.06490889191627502
1760107151690605600,1.30560546875,0.028721440583467484,0.019190814346075058,-0.04457211494445801
1760107151700670700,1.315670654296875,0.01443997398018837,-0.00769352912902832,-0.020020965486764908
1760107151710736600,1.325736572265625,-0.0028972048312425613,-0.0276174359023571,-0.0024973656982183456
1760107151720801500,1.335801513671875,-0.023028040304780006,-0.052013322710990906,-0.0026342521887272596
1760107151730867700,1.34586767578125,-0.031863704323768616,-0.07595963776111603,-0.018351901322603226
1760107151740932600,1.3559326171875,-0.04001004621386528,-0.08197944611310959,-0.04484715685248375
1760107151750998800,1.365998779296875,-0.05032183229923248,-0.10313917696475983,-0.06360737979412079
1760107151761063700,1.376063720703125,-0.07329399883747101,-0.11787178367376328,-0.0751604363322258
1760107151771129600,1.386129638671875,-0.10349064320325851,-0.13187043368816376,-0.06429114192724228
1760107151781194800,1.39619482421875,-0.1361316740512848,-0.1380327194929123,-0.021437952294945717
1760107151791260700,1.4062607421875,-0.1550363302230835,-0.15062984824180603,0.03573429957032204
1760107151801325800,1.416325927734375,-0.17149759829044342,-0.17665238678455353,0.09460107237100601
1760107151811391500,1.4263916015625,-0.17704182863235474,-0.20850524306297302,0.14739416539669037
1760107151821456600,1.43645654296875,-0.16866618394851685,-0.2165016531944275,0.18695595860481262
1760107151831522800,1.446522705078125,-0.1493552327156067,-0.21712858974933624,0.2155017852783203
1760107151841587700,1.456587646484375,-0.1376490592956543,-0.2088181972503662,0.22631235420703888
1760107151851653600,1.466653564453125,-0.13434946537017822,-0.1812504082918167,0.21831220388412476
1760107151861718500,1.476718505859375,-0.14269421994686127,-0.14845837652683258,0.18345089256763458
1760107151871784700,1.48678466796875,-0.15563461184501648,-0.1257268488407135,0.1407705396413803
1760107151881849900,1.496849853515625,-0.1745728850364685,-0.130509614944458,0.10365405678749084
1760107151891915800,1.506915771484375,-0.19236111640930176,-0.14077284932136536,0.07845695316791534
1760107151901980700,1.516980712890625,-0.20161959528923035,-0.15155544877052307,0.07065682113170624
1760107151912046600,1.527046630859375,-0.19468994438648224,-0.16101409494876862,0.08344616740942001
1760107151922111700,1.53711181640625,-0.17346268892288208,-0.15999357402324677,0.09302129596471786
1760107151932177700,1.547177734375,-0.15724125504493713,-0.16268381476402283,0.08144592493772507
1760107151942242600,1.55724267578125,-0.14993806183338165,-0.17850112915039062,0.03784225508570671
1760107151952308700,1.567308837890625,-0.1633291244506836,-0.20074717700481415,-0.04251594841480255
1760107151962373600,1.57737353515625,-0.1870642751455307,-0.21898503601551056,-0.14479811489582062
1760107151972439800,1.587439697265625,-0.21627287566661835,-0.23567397892475128,-0.27697286009788513
1760107151982504700,1.597504638671875,-0.24216225743293762,-0.2537562847137451,-0.4258861839771271
1760107151992570600,1.607570556640625,-0.2569570243358612,-0.26205649971961975,-0.5724298357963562
1760107152002635800,1.6176357421875,-0.2533188760280609,-0.21304020285606384,-0.6873260140419006
1760107152012701700,1.62770166015625,-0.23472024500370026,-0.11047550290822983,-0.7526447176933289
1760107152022766600,1.6377666015625,-0.20621509850025177,0.003362116403877735,-0.758976399898529
1760107152032832500,1.64783251953125,-0.1676555573940277,0.06600241363048553,-0.7078591585159302
1760107152042897700,1.657897705078125,-0.11796789616346359,0.09669401496648788,-0.5943318009376526
1760107152052963800,1.6679638671875,-0.06161213293671608,0.12496938556432724,-0.4110896587371826
1760107152063028500,1.678028564453125,-0.01906600408256054,0.1314280927181244,-0.18852156400680542
1760107152073094700,1.6880947265625,0.00441162521019578,0.118973009288311,0.02576836384832859
1760107152083159800,1.698159912109375,0.009870540350675583,0.10191170126199722,0.2110898345708847
1760107152093225700,1.708225830078125,0.012995980679988861,0.07554984837770462,0.35297566652297974
1760107152103291000,1.718290771484375,0.005868030712008476,0.03763601556420326,0.44501692056655884
1760107152113356500,1.7283564453125,-0.0011953269131481647,-0.0034598433412611485,0.4841375946998596
1760107152123421700,1.738421630859375,-0.009524629451334476,-0.04032331705093384,0.48252958059310913
1760107152133487600,1.748487548828125,-0.027200773358345032,-0.060294657945632935,0.43798819184303284
1760107152143552800,1.758552734375,-0.037514664232730865,-0.09425422549247742,0.37517622113227844
1760107152153618700,1.76861865234375,-0.03238577023148537,-0.09302598983049393,0.31243225932121277
1760107152163683600,1.77868359375,-0.029240310192108154,-0.049432173371315,0.25285255908966064
1760107152173749800,1.788749755859375,-0.03899125009775162,-0.010873350314795971,0.18485890328884125
1760107152183814700,1.798814697265625,-0.05987576022744179,-0.0018103467300534248,0.11189841479063034
1760107152193880600,1.808880615234375,-0.09067616611719131,-0.006338431034237146,0.036367498338222504
1760107152203945500,1.818945556640625,-0.12059997767210007,-0.005975442007184029,-0.03560256585478783
1760107152214011400,1.829011474609375,-0.15203526616096497,-0.007283576764166355,-0.09807486832141876
1760107152224076500,1.83907666015625,-0.17346306145191193,0.006031163036823273,-0.13263550400733948
1760107152234142500,1.849142578125,-0.16973154246807098,0.03659283369779587,-0.13595055043697357
1760107152244207600,1.85920751953125,-0.13243131339550018,0.07146479189395905,-0.11679976433515549
1760107152254273500,1.8692734375,-0.08372223377227783,0.08341022580862045,-0.08758216351270676
1760107152264338400,1.87933837890625,-0.030237698927521706,0.06773805618286133,-0.04313080757856369
1760107152274404600,1.889404541015625,0.016858242452144623,0.06302011013031006,-0.004024334251880646
1760107152284469500,1.899469482421875,0.057380903512239456,0.06978374719619751,0.03651616722345352
1760107152294535400,1.909535400390625,0.08073781430721283,0.08150025457143784,0.05667324364185333
1760107152304600600,1.9196005859375,0.09509997814893723,0.0960025042295456,0.0668419897556305
1760107152314666500,1.92966650390625,0.11137110739946365,0.11032195389270782,0.06579385697841644
1760107152324731600,1.939731689453125,0.12685765326023102,0.11985207349061966,0.06056073680520058
1760107152334797600,1.949797607421875,0.13618193566799164,0.10320913046598434,0.0658479556441307
1760107152344862500,1.959862548828125,0.13965362310409546,0.09036257863044739,0.08146100491285324
1760107152354928400,1.969928466796875,0.13092301785945892,0.0879472941160202,0.10947372764348984
1760107152364993500,1.97999365234375,0.10365279018878937,0.1103612631559372,0.13908623158931732
1760107152375059700,1.990059814453125,0.06236513331532478,0.14402419328689575,0.164755716919899
1760107152385124400,2.000124267578125,0.03814235329627991,0.1842147558927536,0.17988380789756775
1760107152395190500,2.0101904296875,0.030111078172922134,0.20465761423110962,0.19037781655788422
1760107152405255700,2.020255615234375,0.04494328796863556,0.21890471875667572,0.19248570501804352
1760107152415321600,2.030321533203125,0.060330312699079514,0.21930240094661713,0.181282177567482
1760107152425386500,2.040386474609375,0.08286811411380768,0.1874464750289917,0.1641726940870285
1760107152435452400,2.050452392578125,0.10109896957874298,0.14413753151893616,0.13787944614887238
1760107152445517600,2.060517578125,0.10483431816101074,0.110578253865242,0.11918246001005173
1760107152455583500,2.07058349609375,0.10007829964160919,0.0785924419760704,0.1077226772904396
1760107152465648400,2.0806484375,0.08382076770067215,0.063706174492836,0.10707791894674301
1760107152475714600,2.090714599609375,0.06064480170607567,0.08039020001888275,0.11695553362369537
1760107152485779500,2.100779541015625,0.03540123254060745,0.08293085545301437,0.12174788862466812
1760107152495845600,2.110845703125,0.008204679004848003,0.05142085254192352,0.12711958587169647
1760107152505910300,2.12091015625,0.008622262626886368,0.03503761813044548,0.13082750141620636
1760107152515976400,2.1309765625,0.02229694090783596,0.022825872525572777,0.14043773710727692
1760107152526041600,2.14104150390625,0.03993558883666992,0.01713523082435131,0.14554941654205322
1760107152536107500,2.151107421875,0.04890809580683708,0.02597237005829811,0.14240871369838715
1760107152546172700,2.161172607421875,0.05461817979812622,0.03456000238656998,0.12891580164432526
1760107152556238300,2.17123828125,0.055475980043411255,0.05669118091464043,0.10323836654424667
1760107152566303500,2.181303466796875,0.07209037989377975,0.10906703770160675,0.08986663818359375
1760107152576369400,2.191369384765625,0.09878136217594147,0.17734414339065552,0.11198148876428604
1760107152586434600,2.2014345703125,0.12351200729608536,0.223130002617836,0.15340907871723175
1760107152596500500,2.21150048828125,0.1529366672039032,0.2495839148759842,0.20636138319969177
1760107152606565400,2.2215654296875,0.18948988616466522,0.25842615962028503,0.2531547546386719
1760107152616631600,2.231631591796875,0.2347184121608734,0.24185267090797424,0.2862269878387451
1760107152626696700,2.24169677734375,0.2649977505207062,0.21422210335731506,0.30321741104125977
1760107152636762600,2.2517626953125,0.26854923367500305,0.18878525495529175,0.29777950048446655
1760107152646827500,2.26182763671875,0.24499943852424622,0.17793554067611694,0.26246413588523865
1760107152656893400,2.2718935546875,0.20711533725261688,0.1808139681816101,0.19814163446426392
1760107152666958600,2.28195849609375,0.17577633261680603,0.16199740767478943,0.1270722597837448
1760107152677024500,2.2920244140625,0.16715478897094727,0.1319296658039093,0.05457985773682594
1760107152687089400,2.30208935546875,0.18063385784626007,0.0989363044500351,-0.006892026402056217
1760107152697155600,2.312155517578125,0.2084464281797409,0.09799980372190475,-0.05493543669581413
1760107152707220500,2.322220458984375,0.23949354887008667,0.1225954219698906,-0.09233153611421585
1760107152717286700,2.33228662109375,0.2807214558124542,0.14089280366897583,-0.11058685928583145
1760107152727351600,2.3423515625,0.31980520486831665,0.11731317639350891,-0.12999092042446136
1760107152737417500,2.35241748046875,0.338930606842041,0.05167964845895767,-0.13951969146728516
1760107152747482600,2.362482666015625,0.32852137088775635,0.019328631460666656,-0.13050834834575653
1760107152757548500,2.372548583984375,0.30446112155914307,0.06914358586072922,-0.09202200919389725
1760107152767613400,2.382613525390625,0.2849457561969757,0.15505769848823547,-0.028901364654302597
1760107152777679400,2.392679443359375,0.2785279154777527,0.2358504682779312,0.042306676506996155
1760107152787744500,2.40274462890625,0.28275275230407715,0.2591843008995056,0.09010029584169388
1760107152797810400,2.412810546875,0.29750341176986694,0.24506032466888428,0.10756127536296844
1760107152807875300,2.422875244140625,0.32020634412765503,0.18299828469753265,0.10016727447509766
1760107152817940500,2.4329404296875,0.3425208628177643,0.10810868442058563,0.07622308284044266
1760107152828006400,2.44300634765625,0.3554398715496063,0.052218515425920486,0.038889288902282715
1760107152838072600,2.453072509765625,0.343824565410614,0.041844602674245834,-0.0021742142271250486
1760107152848137700,2.4631376953125,0.3164176940917969,0.0492311455309391,-0.04922933876514435
1760107152858202400,2.473202392578125,0.277699738740921,0.01874614879488945,-0.11232584714889526
1760107152868268500,2.4832685546875,0.23664391040802002,-0.032909587025642395,-0.16683275997638702
1760107152878333700,2.493333740234375,0.21726761758327484,-0.07321397215127945,-0.20943744480609894
1760107152888399600,2.503399658203125,0.2324332445859909,-0.08832421153783798,-0.23455530405044556
1760107152898464500,2.513464599609375,0.2715834081172943,-0.07372484356164932,-0.24054451286792755
1760107152908530400,2.523530517578125,0.3133276402950287,-0.05132979527115822,-0.23726722598075867
1760107152918595600,2.533595703125,0.34290122985839844,-0.038054320961236954,-0.22314541041851044
1760107152928661500,2.54366162109375,0.3505631387233734,-0.020052684471011162,-0.19378884136676788
1760107152938726400,2.553726318359375,0.32284462451934814,0.008096015080809593,-0.15488334000110626
1760107152948792600,2.56379248046875,0.2867138087749481,0.019253062084317207,-0.1171194463968277
1760107152958857500,2.573857421875,0.26167914271354675,0.012055348604917526,-0.08195334672927856
1760107152968923600,2.583923583984375,0.2540353536605835,0.010976769030094147,-0.049871571362018585
1760107152978988300,2.59398828125,0.2471356987953186,0.026411768049001694,-0.03177583962678909
1760107152989054500,2.604054443359375,0.23958934843540192,0.05270808935165405,-0.03018246963620186
1760107152999119600,2.61411962890625,0.22044122219085693,0.07626435160636902,-0.04482513293623924
1760107153009185500,2.624185546875,0.2006179839372635,0.10216172784566879,-0.0651482418179512
1760107153019250700,2.634250732421875,0.18212686479091644,0.14029628038406372,-0.08421804010868073
1760107153029316400,2.64431640625,0.16499927639961243,0.16719208657741547,-0.08830732852220535
1760107153039381500,2.654381591796875,0.14342769980430603,0.1729808896780014,-0.07798562943935394
1760107153049447400,2.664447509765625,0.13146132230758667,0.1568130999803543,-0.06391189247369766
1760107153059512600,2.6745126953125,0.13010945916175842,0.11352429538965225,-0.03289835900068283
1760107153069578500,2.68457861328125,0.12994195520877838,0.05730576813220978,0.012464060448110104
1760107153079643400,2.694643310546875,0.12559126317501068,-0.013948495499789715,0.0625402182340622
1760107153089709600,2.70470947265625,0.11577725410461426,-0.08511295169591904,0.1122497171163559
1760107153099774700,2.714774658203125,0.096085324883461,-0.14968040585517883,0.14448878169059753
1760107153109840600,2.724840576171875,0.0551016740500927,-0.19208058714866638,0.1702367514371872
1760107153119905500,2.734905517578125,0.014859110116958618,-0.20549531280994415,0.19311080873012543
1760107153129971500,2.744971435546875,-0.008874714374542236,-0.1881357580423355,0.20946288108825684
1760107153140036600,2.75503662109375,-0.01571173034608364,-0.13367459177970886,0.2206360101699829
1760107153150102500,2.7651025390625,-0.00473977392539382,-0.07555881887674332,0.20590420067310333
1760107153160167400,2.77516748046875,0.009475264698266983,-0.07402543723583221,0.16805098950862885
1760107153170233600,2.785233642578125,0.012562133371829987,-0.11164870858192444,0.11448445171117783
1760107153180298500,2.795298583984375,-0.002760377712547779,-0.16275623440742493,0.0649053305387497
1760107153190364200,2.8053642578125,-0.024468600749969482,-0.2197934240102768,0.02962750382721424
1760107153200429300,2.81542919921875,-0.05739392712712288,-0.22762902081012726,0.023334622383117676
1760107153210495200,2.8254951171875,-0.09592746943235397,-0.2035585641860962,0.06284207850694656
1760107153220560100,2.83556005859375,-0.11965719610452652,-0.13615678250789642,0.13439594209194183
1760107153230626000,2.8456259765625,-0.11800789833068848,-0.05111699551343918,0.23016615211963654
1760107153240691200,2.855691162109375,-0.10821583867073059,0.020896950736641884,0.32340332865715027
1760107153250757000,2.865757080078125,-0.09330000728368759,0.040827780961990356,0.40208643674850464
1760107153260822000,2.875822021484375,-0.07230405509471893,0.01056663691997528,0.47038325667381287
1760107153270888200,2.88588818359375,-0.047458890825510025,-0.028030291199684143,0.5383971929550171
1760107153280953000,2.895953125,-0.023405350744724274,-0.06956019252538681,0.597983717918396
1760107153291019300,2.906019287109375,-0.0031581358052790165,-0.13713765144348145,0.6459389925003052
1760107153301084200,2.916084228515625,0.016629846766591072,-0.18384115397930145,0.6651545166969299
1760107153311150000,2.926150146484375,0.0388917438685894,-0.18806464970111847,0.6405530571937561
1760107153321215200,2.93621533203125,0.066077321767807,-0.15917596220970154,0.5635713338851929
1760107153331281200,2.94628125,0.06676122546195984,-0.12356045842170715,0.42113083600997925
1760107153341346000,2.956345947265625,0.02215656451880932,-0.10811442136764526,0.2176477164030075
1760107153351412000,2.966411865234375,-0.06645452976226807,-0.07616767287254333,-0.020057523623108864
1760107153361477000,2.97647705078125,-0.1698007881641388,-0.050432488322257996,-0.24279561638832092
1760107153371542300,2.986542236328125,-0.2708006203174591,-0.05726562440395355,-0.4122118055820465
1760107153381608200,2.996608154296875,-0.36936289072036743,-0.053319577127695084,-0.5202717781066895
1760107153391674000,3.006674072265625,-0.45594704151153564,-0.046650756150484085,-0.5824493765830994
1760107153401739000,3.016739013671875,-0.5035178065299988,-0.05720657482743263,-0.6185497045516968
1760107153411804200,3.02680419921875,-0.4931304156780243,-0.05985615402460098,-0.6130670309066772
1760107153421870300,3.036870361328125,-0.4249337315559387,-0.05282769352197647,-0.5628605484962463
1760107153431935000,3.04693505859375,-0.3331119418144226,-0.04630507901310921,-0.46923524141311646
1760107153442001200,3.057001220703125,-0.24617443978786469,-0.036230672150850296,-0.33036375045776367
1760107153452066300,3.06706640625,-0.16170109808444977,-0.019380051642656326,-0.17320476472377777
1760107153462132200,3.07713232421875,-0.07224294543266296,0.0023894580081105232,0.00617012195289135
1760107153472197000,3.087197021484375,0.01580754853785038,0.021513352170586586,0.19082464277744293
1760107153482263000,3.097262939453125,0.06789407879114151,0.029963910579681396,0.3553241491317749
1760107153492328200,3.107328125,0.0749136358499527,0.05141806975007057,0.4739530682563782
1760107153502394000,3.11739404296875,0.05884605273604393,0.05826282501220703,0.5096479654312134
1760107153512459000,3.127458984375,0.03508985415101051,0.0292665958404541,0.46624937653541565
1760107153522525200,3.137525146484375,0.012853124178946018,-0.037414662539958954,0.33898261189460754
1760107153532590000,3.147590087890625,-0.016856037080287933,-0.1386728435754776,0.15759176015853882
1760107153542656300,3.15765625,-0.0611710362136364,-0.2674880623817444,-0.054275479167699814
1760107153552721000,3.167720947265625,-0.09928540140390396,-0.37579935789108276,-0.2541806101799011
1760107153562787000,3.177787109375,-0.11468817293643951,-0.38108083605766296,-0.3932924270629883
1760107153572852200,3.187852294921875,-0.11237947642803192,-0.2861764132976532,-0.4530439078807831
1760107153582918100,3.197918212890625,-0.11142334342002869,-0.15886063873767853,-0.44171425700187683
1760107153592983300,3.2079833984375,-0.12026051431894302,-0.024549700319767,-0.37232640385627747
1760107153603049000,3.218049072265625,-0.13794474303722382,0.09945618361234665,-0.2655925154685974
1760107153613114000,3.228114013671875,-0.151544451713562,0.19868981838226318,-0.14965017139911652
1760107153623180000,3.238179931640625,-0.16133078932762146,0.2569160759449005,-0.05757104232907295
1760107153633245200,3.2482451171875,-0.17128035426139832,0.24585171043872833,0.0034504979848861694
1760107153643311000,3.25831103515625,-0.177110955119133,0.2001960277557373,0.017604835331439972
1760107153653376000,3.2683759765625,-0.15919268131256104,0.14406432211399078,-0.005266925785690546
1760107153663442200,3.278442138671875,-0.12068631500005722,0.09174422174692154,-0.04712523892521858
1760107153673507300,3.28850732421875,-0.06413595378398895,0.03379756212234497,-0.10192351043224335
1760107153683573200,3.2985732421875,-0.005997395142912865,-0.010505852289497852,-0.13890497386455536
1760107153693638100,3.30863818359375,0.03896688297390938,-0.0447612926363945,-0.1444920152425766
1760107153703704000,3.3187041015625,0.05739431083202362,-0.082198366522789,-0.10775159299373627
1760107153713769200,3.328769287109375,0.04167021065950394,-0.10257288068532944,-0.03726331144571304
1760107153723835100,3.338835205078125,0.0006590140983462334,-0.08871471881866455,0.04094652459025383
1760107153733900000,3.348900146484375,-0.04614710807800293,-0.05453544855117798,0.10260748863220215
1760107153743966200,3.35896630859375,-0.09388814121484756,-0.01804525777697563,0.12718506157398224
1760107153754031000,3.369031005859375,-0.13185496628284454,0.0030283350497484207,0.11082553118467331
1760107153764097300,3.37909716796875,-0.14726987481117249,0.01240820437669754,0.06348708271980286
1760107153774162200,3.389162109375,-0.14062660932540894,0.005779331550002098,0.01422632671892643
1760107153784227000,3.39922705078125,-0.1155863106250763,-0.003626292571425438,-0.022773290053009987
1760107153794293200,3.409293212890625,-0.08102833479642868,-0.009071924723684788,-0.04665917903184891
1760107153804358100,3.419358154296875,-0.045042846351861954,-0.012335659004747868,-0.04102635756134987
1760107153814424000,3.429424072265625,-0.01867329142987728,-0.0014680977910757065,-0.012239981442689896
1760107153824489200,3.4394892578125,0.003305785357952118,0.04248812422156334,0.046716053038835526
1760107153834555100,3.44955517578125,0.012659072875976562,0.11077770590782166,0.10871311277151108
1760107153844620300,3.459620361328125,0.010052429512143135,0.15660421550273895,0.1712026298046112
1760107153854686000,3.46968603515625,0.00785292498767376,0.17144067585468292,0.22087591886520386
1760107153864751000,3.479751220703125,0.007258327212184668,0.1533903181552887,0.25185129046440125
1760107153874817000,3.489817138671875,0.008998703211545944,0.08604057878255844,0.2549211084842682
1760107153884882200,3.499882080078125,0.02580318972468376,0.006984209641814232,0.25256896018981934
1760107153894948400,3.5099482421875,0.06878767907619476,-0.03446709364652634,0.2717543840408325
1760107153905013000,3.520012939453125,0.11917029321193695,-0.026680845767259598,0.316724956035614
1760107153915079200,3.5300791015625,0.17079061269760132,-0.00737559050321579,0.383182555437088
1760107153925144300,3.540144287109375,0.20737236738204956,0.009586102329194546,0.4386047422885895
1760107153935210200,3.550210205078125,0.218528613448143,0.04825679957866669,0.4795588254928589
1760107153945275100,3.560275146484375,0.22482843697071075,0.13487698137760162,0.49699994921684265
1760107153955341000,3.570341064453125,0.21660113334655762,0.2255655974149704,0.4905857443809509
1760107153965406200,3.58040625,0.21259312331676483,0.3113037347793579,0.4551386833190918
1760107153975472000,3.59047216796875,0.21970589458942413,0.39360180497169495,0.390342116355896
1760107153985537000,3.600537109375,0.25557973980903625,0.40337318181991577,0.30333641171455383
1760107153995603200,3.610603271484375,0.2968379557132721,0.32195955514907837,0.1934378743171692
1760107154005668000,3.620668212890625,0.31801941990852356,0.18298465013504028,0.05873141810297966
1760107154015734300,3.630734375,0.30669909715652466,0.05135205388069153,-0.08046162873506546
1760107154025799000,3.640798828125,0.2762201726436615,-0.027166372165083885,-0.21919497847557068
1760107154035865000,3.650864990234375,0.2397247552871704,-0.04265478253364563,-0.3346262574195862
1760107154045930200,3.66093017578125,0.23017889261245728,0.007007509469985962,-0.39568814635276794
1760107154055996200,3.67099609375,0.2412821352481842,0.09356130659580231,-0.3804316818714142
1760107154066061000,3.68106103515625,0.24964876472949982,0.17818087339401245,-0.29027310013771057
1760107154076127000,3.691126953125,0.23134993016719818,0.2401968389749527,-0.18971987068653107
1760107154086192000,3.701192138671875,0.19454580545425415,0.2753662168979645,-0.09826335310935974
1760107154096258000,3.711258056640625,0.16027624905109406,0.27328336238861084,-0.034029774367809296
1760107154106323200,3.7213232421875,0.1597471982240677,0.2533464729785919,0.018094735220074654
1760107154116389000,3.73138916015625,0.18668854236602783,0.25630712509155273,0.05272994562983513
1760107154126454000,3.7414541015625,0.23056793212890625,0.2726423740386963,0.0676606297492981
1760107154136519200,3.751519287109375,0.2888523042201996,0.251211941242218,0.06905639171600342
1760107154146585300,3.76158544921875,0.35440513491630554,0.18104809522628784,0.06635753065347672
1760107154156650000,3.77164990234375,0.40582677721977234,0.08239342272281647,0.06604673713445663
1760107154166716200,3.781716064453125,0.4299951195716858,-0.015739861875772476,0.0788135752081871
1760107154176781000,3.791781005859375,0.4136931300163269,-0.10412964224815369,0.08173346519470215
1760107154186847000,3.801846923828125,0.36763086915016174,-0.15998832881450653,0.06698260456323624
1760107154196912000,3.811912109375,0.29980015754699707,-0.1756724715232849,0.020170897245407104
1760107154206978000,3.82197802734375,0.22375492751598358,-0.1475522518157959,-0.05892513692378998
1760107154217043000,3.83204296875,0.16995000839233398,-0.08233329653739929,-0.14771093428134918
1760107154227108900,3.84210888671875,0.1432068645954132,-0.033269718289375305,-0.24002590775489807
1760107154237174000,3.852174072265625,0.14282763004302979,-0.006625857669860125,-0.29896244406700134
1760107154247240200,3.862240234375,0.16329480707645416,-0.004397009499371052,-0.3281635344028473
1760107154257304800,3.872304931640625,0.19657473266124725,-0.028095414862036705,-0.317500501871109
1760107154267371000,3.88237109375,0.24118131399154663,-0.04849902540445328,-0.26906681060791016
1760107154277436000,3.892435791015625,0.27709218859672546,-0.05189988389611244,-0.1961481273174286
1760107154287502000,3.902502197265625,0.275208979845047,-0.05114680528640747,-0.12062367051839828
1760107154297567200,3.912567138671875,0.2471911907196045,-0.029587984085083008,-0.055687546730041504
1760107154307633000,3.9226328125,0.19481299817562103,-0.013706007041037083,-0.02039453014731407
1760107154317698000,3.932697998046875,0.1400272399187088,-0.007280065678060055,-0.015323073603212833
1760107154327764000,3.942763916015625,0.11123150587081909,0.004118797369301319,-0.024896305054426193
1760107154337829000,3.9528291015625,0.10253096371889114,0.031012460589408875,-0.044402897357940674
1760107154347894800,3.962894775390625,0.09991632401943207,0.06447343528270721,-0.059427909553050995
1760107154357960000,3.9729599609375,0.1052442416548729,0.08357948064804077,-0.08056169003248215
1760107154368026000,3.983026123046875,0.11749428510665894,0.08307594805955887,-0.10433930158615112
1760107154378091000,3.993091064453125,0.14273172616958618,0.05854637175798416,-0.12333083897829056
1760107154388157200,4.0031572265625,0.1609325110912323,0.030776889994740486,-0.12181287258863449
1760107154398222000,4.01322216796875,0.17968063056468964,0.01817374862730503,-0.08433394134044647
1760107154408288000,4.0232880859375,0.17562833428382874,0.019542060792446136,-0.02530517987906933
1760107154418353200,4.033353271484375,0.13967831432819366,0.030291110277175903,0.04501212760806084
1760107154428419000,4.043419189453125,0.08528010547161102,0.03394411876797676,0.10786965489387512
1760107154438484000,4.05348388671875,0.03019234910607338,0.018991533666849136,0.14616911113262177
1760107154448550000,4.0635498046875,-0.007830344140529633,-0.01518457755446434,0.1546533852815628
1760107154458615000,4.073614990234375,-0.020163442939519882,-0.043372802436351776,0.14149869978427887
1760107154468680000,4.083679931640625,-0.013949783518910408,-0.062251005321741104,0.10920854657888412
1760107154478745900,4.093745849609375,-0.0066870772279798985,-0.08393260091543198,0.06891252845525742
1760107154488811000,4.10381103515625,-0.0039522768929600716,-0.08801602572202682,0.018994498997926712
1760107154498877000,4.113876953125,-0.0029061874374747276,-0.11184119433164597,-0.028089655563235283
1760107154508942000,4.123942138671875,-0.005246821325272322,-0.13959702849388123,-0.060332201421260834
1760107154519008000,4.134008056640625,-0.016123171895742416,-0.16003786027431488,-0.058409933000802994
1760107154529073000,4.144072998046875,-0.04104037210345268,-0.18328987061977386,-0.03345148637890816
1760107154539139000,4.15413916015625,-0.06962940841913223,-0.18351757526397705,0.010898932814598083
1760107154549204200,4.164204345703125,-0.08570774644613266,-0.17651939392089844,0.05633736029267311
1760107154559270000,4.174269775390625,-0.09204208105802536,-0.17105963826179504,0.09841956198215485
1760107154569335000,4.1843349609375,-0.11273925751447678,-0.16256850957870483,0.12907786667346954
1760107154579401000,4.19440087890625,-0.1381857693195343,-0.13280528783798218,0.14418891072273254
1760107154589466000,4.204466064453125,-0.15513867139816284,-0.10084059089422226,0.148701012134552
1760107154599532000,4.214531982421875,-0.16376066207885742,-0.09096026420593262,0.14427031576633453
1760107154609597000,4.224596923828125,-0.1483815312385559,-0.1265847533941269,0.1405235379934311
1760107154619663000,4.2346630859375,-0.09797908365726471,-0.19137732684612274,0.1454991102218628
1760107154629728000,4.24472802734375,-0.029779450967907906,-0.25966307520866394,0.16328857839107513
1760107154639794200,4.254794189453125,0.030705463141202927,-0.30371201038360596,0.1875944584608078
1760107154649859000,4.264859130859375,0.06105564534664154,-0.31393375992774963,0.19846388697624207
1760107154659925000,4.274925048828125,0.055316049605607986,-0.310211181640625,0.18111012876033783
1760107154669990100,4.284990234375,0.01840505562722683,-0.2977466583251953,0.11897536367177963
1760107154680056000,4.29505615234375,-0.041073452681303024,-0.26215189695358276,0.019162483513355255
1760107154690121000,4.305120849609375,-0.11806021630764008,-0.21884402632713318,-0.13928332924842834
1760107154700187000,4.315186767578125,-0.19893641769886017,-0.14760074019432068,-0.33733996748924255
1760107154710252000,4.325251953125,-0.2607108950614929,-0.030489414930343628,-0.5603060126304626
1760107154720317200,4.335317138671875,-0.2805951237678528,0.08017025142908096,-0.7650154829025269
1760107154730382800,4.3453828125,-0.2463340163230896,0.17444036900997162,-0.9072252511978149
1760107154740448000,4.355447998046875,-0.17864365875720978,0.23034703731536865,-0.9526249170303345
1760107154750514000,4.365513916015625,-0.09249404072761536,0.263937771320343,-0.8876380324363708
1760107154760579000,4.3755791015625,0.0020867926068603992,0.29523766040802,-0.7122119069099426
1760107154770645000,4.38564501953125,0.09164798259735107,0.31212174892425537,-0.46154671907424927
1760107154780710000,4.3957099609375,0.15603309869766235,0.3011535108089447,-0.18519501388072968
1760107154790776000,4.405776123046875,0.17818708717823029,0.26545625925064087,0.06389816105365753
1760107154800841200,4.41584130859375,0.1728658229112625,0.2208224982023239,0.24202874302864075
1760107154810907100,4.4259072265625,0.1705695241689682,0.16115343570709229,0.33350032567977905
1760107154820972000,4.435971923828125,0.1847868114709854,0.10289252549409866,0.3583550751209259
1760107154831038000,4.446037841796875,0.2103031873703003,0.05930586904287338,0.3272053599357605
1760107154841103000,4.45610302734375,0.2585764527320862,0.037173669785261154,0.2631795108318329
1760107154851169000,4.4661689453125,0.3158988952636719,0.026028506457805634,0.17958109080791473
1760107154861234000,4.47623388671875,0.36186718940734863,0.01582380384206772,0.08662237972021103
1760107154871300000,4.486300048828125,0.37261542677879333,-0.010678691789507866,-0.010459654033184052
1760107154881365000,4.496364990234375,0.3512915074825287,-0.0430760458111763,-0.09842359274625778
1760107154891431200,4.50643115234375,0.30185624957084656,-0.07237962633371353,-0.1674119234085083
1760107154901495800,4.516495849609375,0.23591479659080505,-0.06900832802057266,-0.19530853629112244
1760107154911562000,4.52656201171875,0.1600876897573471,0.011423779651522636,-0.19640269875526428
1760107154921627100,4.536627197265625,0.09468019008636475,0.1372557431459427,-0.1828187108039856
1760107154931693000,4.546693115234375,0.06449607014656067,0.2451353222131729,-0.17609542608261108
1760107154941758000,4.556758056640625,0.07510024309158325,0.31113752722740173,-0.17037709057331085
1760107154951824000,4.566823974609375,0.10565908253192902,0.33738216757774353,-0.16990691423416138
1760107154961889000,4.576888916015625,0.13138920068740845,0.31690165400505066,-0.16423970460891724
1760107154971955000,4.586954833984375,0.14788305759429932,0.27518001198768616,-0.14541228115558624
1760107154982019800,4.597019775390625,0.1552371084690094,0.22421245276927948,-0.11172915995121002
1760107154992085000,4.6070849609375,0.1580645889043808,0.16833452880382538,-0.07201609760522842
1760107155002151000,4.61715087890625,0.15586376190185547,0.12667390704154968,-0.030998626723885536
1760107155012216000,4.627216064453125,0.15233951807022095,0.12789621949195862,0.016117094084620476
1760107155022282200,4.6372822265625,0.14711998403072357,0.15561148524284363,0.05218268558382988
1760107155032347000,4.647346923828125,0.13694943487644196,0.1841796487569809,0.07694507390260696
1760107155042413000,4.6574130859375,0.12352496385574341,0.2038297802209854,0.07916934043169022
1760107155052478000,4.66747802734375,0.11495371162891388,0.21514637768268585,0.0739365890622139
1760107155062544100,4.677544189453125,0.1142256036400795,0.21826228499412537,0.058897726237773895
1760107155072609000,4.687609130859375,0.11354964971542358,0.19523577392101288,0.04289938136935234
1760107155082675000,4.697675048828125,0.10298116505146027,0.1452743411064148,0.024149665609002113
1760107155092740000,4.707739990234375,0.09446874260902405,0.08890604972839355,0.01662195287644863
1760107155102806000,4.717805908203125,0.08252552151679993,0.05075521022081375,0.026886573061347008
1760107155112871000,4.727870849609375,0.07368841022253036,0.03081553801894188,0.049648087471723557
1760107155122937000,4.73793701171875,0.07395339757204056,0.03887719288468361,0.08739732950925827
1760107155133002000,4.748001953125,0.07867193222045898,0.09021872282028198,0.11669155955314636
1760107155143068200,4.758068115234375,0.08148130774497986,0.1440015286207199,0.12898710370063782
1760107155153132800,4.7681328125,0.08111505210399628,0.17178164422512054,0.1182350441813469
1760107155163199000,4.778198974609375,0.0933312401175499,0.16528059542179108,0.10717600584030151
1760107155173264100,4.78826416015625,0.11780688911676407,0.15421882271766663,0.10689764469861984
1760107155183330000,4.798330078125,0.12438836693763733,0.12467636913061142,0.12114661931991577
1760107155193395700,4.808395751953125,0.1299179643392563,0.08643557131290436,0.14273245632648468
1760107155203460400,4.81846044921875,0.13793274760246277,0.06977324187755585,0.16598744690418243
1760107155213526500,4.828526611328125,0.14521406590938568,0.07325314730405807,0.18041041493415833
1760107155223591700,4.838591796875,0.15394523739814758,0.0808870941400528,0.17834939062595367
1760107155233657600,4.84865771484375,0.16462479531764984,0.1019395962357521,0.1678113043308258
1760107155243722500,4.858722412109375,0.18780574202537537,0.10702144354581833,0.16170734167099
1760107155253788400,4.868788330078125,0.21863852441310883,0.09905357658863068,0.170658141374588
1760107155263853600,4.878853515625,0.2472246140241623,0.07057905942201614,0.19198474287986755
1760107155273919500,4.88891943359375,0.2748093008995056,0.015584937296807766,0.22866196930408478
1760107155283984400,4.898984375,0.30349475145339966,-0.0041474890895187855,0.2703891694545746
1760107155294050600,4.909050537109375,0.31950700283050537,0.04379766806960106,0.3137771487236023
1760107155304115500,4.919115478515625,0.33199483156204224,0.12658974528312683,0.339055597782135
1760107155314181600,4.929181640625,0.33329957723617554,0.20180530846118927,0.3417888283729553
1760107155324246500,4.93924658203125,0.3346865475177765,0.26653531193733215,0.3167351484298706
1760107155334312400,4.9493125,0.35242438316345215,0.3070604205131531,0.26819801330566406
1760107155344377600,4.959377685546875,0.37888050079345703,0.27594244480133057,0.19773824512958527
1760107155354443500,4.969443603515625,0.42707106471061707,0.18388037383556366,0.09972480684518814
1760107155364508700,4.9795087890625,0.4439714848995209,0.061136871576309204,-0.011671221815049648
1760107155374574300,4.98957421875,0.43741241097450256,-0.024281136691570282,-0.12464167922735214
1760107155384639500,4.999639404296875,0.4192296862602234,-0.06843101978302002,-0.23351143300533295
1760107155394705400,5.009705322265625,0.4035150706768036,-0.053353384137153625,-0.3183273375034332
1760107155404770600,5.0197705078125,0.38925305008888245,0.012688483111560345,-0.3732057809829712
1760107155414836500,5.02983642578125,0.3659951090812683,0.10973778367042542,-0.3949536085128784
1760107155424901400,5.0399013671875,0.3434189558029175,0.22971639037132263,-0.37402087450027466
1760107155434966500,5.049966552734375,0.32009848952293396,0.36678263545036316,-0.3045004606246948
1760107155445032700,5.06003271484375,0.31841909885406494,0.4971587657928467,-0.20723171532154083
1760107155455097300,5.070097412109375,0.3326427638530731,0.5863858461380005,-0.09757498651742935
1760107155465163500,5.08016357421875,0.36464810371398926,0.6100501418113708,0.004747120197862387
1760107155475228700,5.090228759765625,0.4084670841693878,0.5708224773406982,0.08805134892463684
1760107155485294600,5.100294677734375,0.43942099809646606,0.4514082074165344,0.14011934399604797
1760107155495359500,5.110359375,0.43208763003349304,0.28287118673324585,0.15068092942237854
1760107155505425400,5.12042529296875,0.38138771057128906,0.11454182118177414,0.11318308860063553
1760107155515490600,5.130490478515625,0.31128981709480286,0.01312134601175785,0.05956527963280678
1760107155525556500,5.140556396484375,0.24550120532512665,-0.023373015224933624,0.014191408641636372
1760107155535621400,5.150621337890625,0.19317275285720825,0.01399491261690855,-0.017756976187229156
1760107155545687600,5.1606875,0.15857642889022827,0.0898156389594078,-0.04063059762120247
1760107155555752400,5.17075244140625,0.1477985978126526,0.15715691447257996,-0.07246499508619308
1760107155565818600,5.180818603515625,0.1511603146791458,0.16835683584213257,-0.11017829179763794
1760107155575883500,5.190883544921875,0.1636957824230194,0.11994732916355133,-0.17267262935638428
1760107155585949400,5.200949462890625,0.1704104095697403,0.03191201388835907,-0.2447710633277893
1760107155596014600,5.2110146484375,0.18127815425395966,-0.04832659661769867,-0.30486416816711426
1760107155606080500,5.22108056640625,0.20012880861759186,-0.08207178115844727,-0.3372279703617096
1760107155616145700,5.231145751953125,0.21426118910312653,-0.0768597424030304,-0.3159613311290741
1760107155626211300,5.24121142578125,0.20954233407974243,-0.05606205016374588,-0.24694444239139557
1760107155636276500,5.2512763671875,0.20722591876983643,-0.0010236287489533424,-0.13397599756717682
1760107155646341600,5.261341552734375,0.2068120539188385,0.0839405357837677,-0.0052355993539094925
1760107155656407600,5.271407470703125,0.21691817045211792,0.13529804348945618,0.08981581032276154
1760107155666472400,5.281472412109375,0.23045316338539124,0.12746594846248627,0.13100558519363403
1760107155676538400,5.291538330078125,0.24240227043628693,0.08297279477119446,0.12087591737508774
1760107155686603500,5.301603515625,0.23445354402065277,0.025747058913111687,0.07576703280210495
1760107155696669700,5.311669677734375,0.20386318862438202,-0.0011051110923290253,0.024294525384902954
1760107155706734300,5.321734375,0.16228751838207245,0.0011428631842136383,-0.03012211062014103
1760107155716800500,5.331800537109375,0.14099937677383423,0.01786796562373638,-0.06623460352420807
1760107155726865400,5.341865478515625,0.15176653861999512,0.05263233184814453,-0.08150383830070496
1760107155736931600,5.351931640625,0.18613317608833313,0.09045425057411194,-0.06928960978984833
1760107155746996500,5.36199658203125,0.21415682137012482,0.09874334186315536,-0.027816729620099068
1760107155757062400,5.3720625,0.2070809155702591,0.08921457827091217,0.020082181319594383
1760107155767127600,5.38212744140625,0.1723751425743103,0.0643390566110611,0.06479691714048386
1760107155777193500,5.392193359375,0.12273471057415009,0.0430537611246109,0.09317678958177567
1760107155787258600,5.402258544921875,0.09281755238771439,0.01596248894929886,0.10037665069103241
1760107155797324500,5.412324462890625,0.07689282298088074,0.0005491618067026138,0.09839695692062378
1760107155807389400,5.422389404296875,0.06770944595336914,-0.008228084072470665,0.07831033319234848
1760107155817455600,5.43245556640625,0.06673239171504974,-0.01936306059360504,0.05885405093431473
1760107155827520500,5.4425205078125,0.06851484626531601,-0.040139712393283844,0.03576737269759178
1760107155837586400,5.45258642578125,0.06417259573936462,-0.05273854359984398,0.017293483018875122
1760107155847651600,5.462651611328125,0.051464520394802094,-0.0482226200401783,0.006499424576759338
1760107155857716500,5.472716552734375,0.035022422671318054,-0.06111626327037811,0.0032481979578733444
1760107155867782700,5.48278271484375,0.015879886224865913,-0.1023329421877861,0.003073228057473898
1760107155877847600,5.49284765625,0.001568361185491085,-0.1681600958108902,0.008031925186514854
1760107155887913500,5.50291357421875,-0.0028386376798152924,-0.20695383846759796,0.006339219864457846
1760107155897978600,5.512978515625,0.00018667615950107574,-0.2098255753517151,0.004235964268445969
1760107155908044500,5.52304443359375,-0.004698626231402159,-0.17596668004989624,-0.0010687863687053323
1760107155918109400,5.533109375,-0.0412004180252552,-0.10542476177215576,-0.01001822017133236
1760107155928175400,5.54317529296875,-0.08620118349790573,-0.03144560754299164,-0.013042772188782692
1760107155938240500,5.553240478515625,-0.10842396318912506,0.033270686864852905,0.010812640190124512
1760107155948306700,5.563306640625,-0.09427298605442047,0.08213064074516296,0.06685487180948257
1760107155958371300,5.573371337890625,-0.06085015833377838,0.09004515409469604,0.14355923235416412
1760107155968437500,5.5834375,-0.027770236134529114,0.03803016245365143,0.21347945928573608
1760107155978502400,5.59350244140625,-0.008988321758806705,-0.053797610104084015,0.25989875197410583
1760107155988568600,5.603568603515625,-0.0009759352542459965,-0.14348328113555908,0.28122907876968384
1760107155998633700,5.6136337890625,0.002551419660449028,-0.18947522342205048,0.2740645408630371
1760107156008699400,5.623699462890625,0.005645480006933212,-0.17936399579048157,0.24868224561214447
1760107156018764500,5.6337646484375,0.010495487600564957,-0.14586009085178375,0.19412674009799957
1760107156028830500,5.64383056640625,0.011400962248444557,-0.15978415310382843,0.08915609866380692
1760107156038895600,5.6538955078125,-0.019242139533162117,-0.2110339105129242,-0.08380650728940964
1760107156048960500,5.66396044921875,-0.08021840453147888,-0.23726259171962738,-0.3185361623764038
1760107156059026400,5.6740263671875,-0.13199852406978607,-0.20144088566303253,-0.576284646987915
1760107156069091600,5.684091552734375,-0.15614460408687592,-0.09356049448251724,-0.7944401502609253
1760107156079157500,5.694157470703125,-0.16105985641479492,0.06665913760662079,-0.9269622564315796
1760107156089222400,5.704222412109375,-0.15262483060359955,0.15309204161167145,-0.9610605835914612
1760107156099288600,5.71428857421875,-0.11483543366193771,0.17612719535827637,-0.8789469599723816
1760107156109353500,5.724353515625,-0.05432894453406334,0.17039313912391663,-0.6853119730949402
1760107156119419600,5.734419677734375,0.011724594980478287,0.15088467299938202,-0.4119514524936676
1760107156129484300,5.744484375,0.057868387550115585,0.12061785161495209,-0.10389745980501175
1760107156139550500,5.754550537109375,0.07853828370571136,0.08697392791509628,0.17677456140518188
1760107156149615600,5.76461572265625,0.06815089285373688,0.046621449291706085,0.380111962556839
1760107156159681500,5.774681640625,0.047988373786211014,-0.029546339064836502,0.4716421961784363
1760107156169746400,5.784746337890625,0.03436710312962532,-0.11198129504919052,0.46076133847236633
1760107156179812400,5.794812255859375,0.0385197214782238,-0.16831189393997192,0.3822643756866455
1760107156189877200,5.804877197265625,0.0527239553630352,-0.18194594979286194,0.27331286668777466
1760107156199943400,5.814943359375,0.06880705058574677,-0.16459551453590393,0.16290120780467987
1760107156210008300,5.82500830078125,0.09288442134857178,-0.1296636313199997,0.07019497454166412
1760107156220073200,5.8350732421875,0.11611423641443253,-0.08842449635267258,-0.0007321392768062651
1760107156230139100,5.84513916015625,0.1259511560201645,-0.05896434932947159,-0.051627013832330704
1760107156240204300,5.855204345703125,0.10862243175506592,-0.04800476133823395,-0.09797781705856323
1760107156250270500,5.8652705078125,0.06847181916236877,-0.046941354870796204,-0.13686583936214447
1760107156260335000,5.875335205078125,0.0131391491740942,-0.05264534801244736,-0.16912369430065155
1760107156270401300,5.8854013671875,-0.05202094465494156,-0.05536230653524399,-0.1933843046426773
1760107156280466400,5.895466552734375,-0.11917592585086823,-0.04570513591170311,-0.19681881368160248
1760107156290532400,5.905532470703125,-0.1644270271062851,-0.010174572467803955,-0.18541941046714783
1760107156300597200,5.91559716796875,-0.18107447028160095,0.040633633732795715,-0.15465202927589417
1760107156310663200,5.9256630859375,-0.1700625717639923,0.07545233517885208,-0.13202208280563354
1760107156320728300,5.935728271484375,-0.13565829396247864,0.08656750619411469,-0.12615182995796204
1760107156330794200,5.945794189453125,-0.08978641778230667,0.09296015650033951,-0.1310533881187439
1760107156340859400,5.955859375,-0.04586115851998329,0.09183228015899658,-0.14695073664188385
1760107156350925300,5.96592529296875,-0.018941659480333328,0.0715874657034874,-0.16159012913703918
1760107156360990200,5.975990234375,-0.007987563498318195,0.04787744581699371,-0.16715086996555328
1760107156371056400,5.986056396484375,0.0009409505873918533,0.03281380981206894,-0.15302813053131104
1760107156381121300,5.996121337890625,0.01172834075987339,0.005725250579416752,-0.12879739701747894
1760107156391186200,6.006186279296875,0.0235168244689703,-0.014111037366092205,-0.09159944206476212
1760107156401252400,6.01625244140625,0.038028500974178314,-0.006584014277905226,-0.04600397124886513
1760107156411317200,6.026317138671875,0.04470611363649368,0.0041847433894872665,0.002858906053006649
1760107156421383400,6.036383544921875,0.04613972082734108,0.015410290099680424,0.04305952042341232
1760107156431448300,6.0464482421875,0.04793522506952286,0.015925880521535873,0.06472646445035934
1760107156441514200,6.05651416015625,0.055595237761735916,0.021089207381010056,0.07503639161586761
1760107156451579400,6.066579345703125,0.06808120012283325,0.025122568011283875,0.08200987428426743
1760107156461645300,6.076645263671875,0.07398230582475662,0.026621993631124496,0.0811210349202156
1760107156471710200,6.086710205078125,0.07547234743833542,0.023291178047657013,0.07894763350486755
1760107156481776000,6.096776123046875,0.07424912601709366,0.027795003727078438,0.08112305402755737
1760107156491841300,6.10684130859375,0.07752162218093872,0.048726387321949005,0.1027977243065834
1760107156501907500,6.116907470703125,0.07122214883565903,0.07420079410076141,0.13356848061084747
1760107156511972000,6.12697216796875,0.05992422252893448,0.10129233449697495,0.17986194789409637
1760107156522038300,6.137038330078125,0.050310470163822174,0.11046617478132248,0.2262246161699295
1760107156532103400,6.147103515625,0.033645473420619965,0.10449883341789246,0.2572469711303711
1760107156542169300,6.15716943359375,0.012140493839979172,0.07769779115915298,0.256990522146225
1760107156552234500,6.167234375,-0.006323733367025852,0.01991705596446991,0.2193632572889328
1760107156562299100,6.177299072265625,-0.017224812880158424,-0.024373169988393784,0.1585097312927246
1760107156572365300,6.187365234375,-0.01618005335330963,-0.04732216149568558,0.09223642945289612
1760107156582430500,6.197430419921875,-0.004473874345421791,-0.03733440488576889,0.051791951060295105
1760107156592496400,6.207496337890625,0.01370326615869999,-0.01993730291724205,0.03605613112449646
1760107156602561300,6.217561279296875,0.04295170679688454,-0.017626795917749405,0.05660459026694298
1760107156612627200,6.227627197265625,0.06199171394109726,-0.007067893631756306,0.10310737788677216
1760107156622692400,6.2376923828125,0.08359276503324509,-0.0006506051868200302,0.16295471787452698
1760107156632758300,6.24775830078125,0.09733787178993225,-0.00660543330013752,0.21921852231025696
1760107156642823200,6.2578232421875,0.096676766872406,0.00015029218047857285,0.2448275089263916
1760107156652889300,6.267889404296875,0.08602359145879745,0.03248559311032295,0.24327461421489716
1760107156662954200,6.277954345703125,0.07819746434688568,0.06671617925167084,0.21474654972553253
1760107156673020400,6.2880205078125,0.07278778403997421,0.08772160112857819,0.1724931001663208
1760107156683085300,6.298085205078125,0.08041637390851974,0.10240094363689423,0.11937504261732101
1760107156693151200,6.308151123046875,0.10592465847730637,0.11731544137001038,0.06051412969827652
1760107156703216400,6.31821630859375,0.1433212161064148,0.12728218734264374,-0.00947059690952301
1760107156713282300,6.3282822265625,0.18078337609767914,0.11040201783180237,-0.09575168788433075
1760107156723347200,6.33834716796875,0.20210415124893188,0.06462984532117844,-0.17654867470264435
1760107156733412400,6.348412353515625,0.20092836022377014,0.04556560888886452,-0.24690885841846466
1760107156743478300,6.358478271484375,0.19327455759048462,0.07207298278808594,-0.3073996305465698
1760107156753543400,6.36854345703125,0.1806839257478714,0.10396113991737366,-0.3548904359340668
1760107156763609300,6.378609375,0.17378239333629608,0.09530150890350342,-0.3868102729320526
1760107156773674200,6.38867431640625,0.17148594558238983,0.0339910127222538,-0.4053834080696106
1760107156783740200,6.398740234375,0.1739371418952942,-0.02040943130850792,-0.39480340480804443
1760107156793805300,6.408805419921875,0.19982439279556274,-0.007915476337075233,-0.33255070447921753
1760107156803871500,6.41887158203125,0.248041570186615,0.05076559633016586,-0.2209016978740692
1760107156813936000,6.42893603515625,0.29225587844848633,0.15667524933815002,-0.06919818371534348
1760107156824002300,6.439002197265625,0.3277862071990967,0.2763974964618683,0.08964435756206512
1760107156834067500,6.4490673828125,0.3536074161529541,0.33435508608818054,0.22398723661899567
1760107156844133400,6.45913330078125,0.3640121817588806,0.3160753548145294,0.3039747178554535
1760107156854198300,6.4691982421875,0.3620808720588684,0.21855919063091278,0.3148585259914398
1760107156864264200,6.47926416015625,0.3441023528575897,0.08821039646863937,0.26686665415763855
1760107156874329300,6.489329345703125,0.30612701177597046,-0.03801891207695007,0.1853656768798828
1760107156884394500,6.49939453125,0.2494380921125412,-0.1205122098326683,0.09896057844161987
1760107156894460200,6.509460205078125,0.20899425446987152,-0.12340067327022552,0.031825751066207886
1760107156904525300,6.519525390625,0.1988457441329956,-0.05662910267710686,-0.0023484663106501102
1760107156914591200,6.52959130859375,0.2233303189277649,0.02044171467423439,-0.020636659115552902
1760107156924656400,6.539656494140625,0.2643667459487915,0.06422111392021179,-0.04031185805797577
1760107156934722300,6.549722412109375,0.3065142035484314,0.06824595481157303,-0.07776788622140884
1760107156944787200,6.559787109375,0.3263768255710602,0.03643203154206276,-0.12274856865406036
1760107156954853400,6.569853271484375,0.31021836400032043,0.010140771977603436,-0.16972219944000244
1760107156964918300,6.579918212890625,0.25719231367111206,-0.0005268128588795662,-0.20064106583595276
1760107156974984400,6.589984375,0.19738514721393585,0.00941530056297779,-0.21059702336788177
1760107156985049300,6.60004931640625,0.14258234202861786,0.03770381957292557,-0.18340657651424408
1760107156995115300,6.610115234375,0.12058942019939423,0.05746820569038391,-0.1319311410188675
1760107157005180400,6.620180419921875,0.1361234188079834,0.06572187691926956,-0.06666640937328339
1760107157015246300,6.630246337890625,0.1800149828195572,0.04848936200141907,0.0042442516423761845
1760107157025311200,6.640311279296875,0.239375039935112,0.029397547245025635,0.06152334064245224
1760107157035376400,6.65037646484375,0.2943176329135895,0.027121346443891525,0.10753317922353745
1760107157045442300,6.6604423828125,0.3038712739944458,0.034886181354522705,0.11591152846813202
1760107157055507500,6.670507568359375,0.26930904388427734,0.029720712453126907,0.08121853321790695
1760107157065573000,6.680572998046875,0.2162606120109558,0.008448367938399315,0.025953086093068123
1760107157075638300,6.69063818359375,0.17658883333206177,-0.025481635704636574,-0.04095590487122536
1760107157085704400,6.700704345703125,0.14989662170410156,-0.05066946893930435,-0.09435059130191803
1760107157095769300,6.710769287109375,0.13666842877864838,-0.05793564021587372,-0.12955358624458313
1760107157105835300,6.720835205078125,0.13765017688274384,-0.04117671400308609,-0.12479058653116226
1760107157115900200,6.730900146484375,0.14809563755989075,-0.024612117558717728,-0.09797096252441406
1760107157125966300,6.74096630859375,0.1608009785413742,0.01026126742362976,-0.034561365842819214
1760107157136031500,6.751031494140625,0.15775832533836365,0.05093572661280632,0.039809003472328186
1760107157146097400,6.761097412109375,0.14151661098003387,0.06591235846281052,0.11620800197124481
1760107157156162300,6.771162353515625,0.11081356555223465,0.05609913915395737,0.17489369213581085
1760107157166227500,6.7812275390625,0.06140017881989479,0.013766003772616386,0.20147396624088287
1760107157176293400,6.79129345703125,0.02433217130601406,-0.051599688827991486,0.18411362171173096
1760107157186358300,6.801358154296875,0.0014676004648208618,-0.11626017093658447,0.14924298226833344
1760107157196424200,6.811424072265625,-0.013271132484078407,-0.1496250480413437,0.09889698773622513
1760107157206489300,6.8214892578125,-0.030162563547492027,-0.15213999152183533,0.05441918596625328
1760107157216555300,6.83155517578125,-0.05034373328089714,-0.12090058624744415,0.027976125478744507
1760107157226620200,6.8416201171875,-0.06287257373332977,-0.07505453377962112,0.022894015535712242
1760107157236686300,6.851686279296875,-0.07288254052400589,-0.03514556214213371,0.022502845153212547
1760107157246751200,6.861751220703125,-0.07369223237037659,-0.03720047324895859,0.024601250886917114
1760107157256817400,6.8718173828125,-0.07068631798028946,-0.05595046281814575,0.044835951179265976
1760107157266882300,6.88188232421875,-0.0674779936671257,-0.04703424498438835,0.0940336287021637
1760107157276948200,6.8919482421875,-0.07182028144598007,-0.006397870369255543,0.16956619918346405
1760107157287013400,6.902013427734375,-0.08006849884986877,0.06525243073701859,0.255720317363739
1760107157297079300,6.912079345703125,-0.10336610674858093,0.15043894946575165,0.3149822950363159
1760107157307144200,6.922144287109375,-0.10486721992492676,0.2269831895828247,0.31982603669166565
1760107157317209300,6.932209228515625,-0.11090460419654846,0.2438945323228836,0.2808879613876343
1760107157327275300,6.942275146484375,-0.11739270389080048,0.20080305635929108,0.22640930116176605
1760107157337340400,6.95234033203125,-0.12221115827560425,0.14913932979106903,0.1745985746383667
1760107157347406000,6.962406005859375,-0.12025140225887299,0.08975759893655777,0.16438636183738708
1760107157357471200,6.97247119140625,-0.10709378123283386,0.04144013673067093,0.18135309219360352
1760107157367537200,6.982537109375,-0.08631877601146698,0.016522789373993874,0.22472460567951202
1760107157377602300,6.992602294921875,-0.0728173479437828,0.0004359651356935501,0.2443140298128128
1760107157387668500,7.00266845703125,-0.08785245567560196,-0.0007054582238197327,0.20899434387683868
1760107157397733000,7.012733154296875,-0.12047591060400009,0.0173017717897892,0.09243098646402359
1760107157407799300,7.02279931640625,-0.17236493527889252,0.07093378901481628,-0.10332728922367096
1760107157417864400,7.032864501953125,-0.216824010014534,0.11774629354476929,-0.35253897309303284
1760107157427930400,7.042930419921875,-0.2263289988040924,0.1268576830625534,-0.5970747470855713
1760107157437995300,7.052995361328125,-0.1737680584192276,0.1378357708454132,-0.7471901774406433
1760107157448060200,7.06306005859375,-0.08856962621212006,0.1850307583808899,-0.7838519811630249
1760107157458126300,7.073126220703125,-0.012371258810162544,0.23433251678943634,-0.7156801223754883
1760107157468191200,7.083191162109375,0.04728403314948082,0.26775017380714417,-0.5634527802467346
1760107157478257200,7.093257080078125,0.0828755795955658,0.2545531392097473,-0.3702108860015869
1760107157488322300,7.103322265625,0.09199780225753784,0.1926732212305069,-0.1639467179775238
1760107157498388200,7.11338818359375,0.0745043009519577,0.11653851717710495,0.029584651812911034
1760107157508453400,7.123453369140625,0.04227020591497421,0.025757431983947754,0.18559692800045013
1760107157518519000,7.13351904296875,0.009546080604195595,-0.046437669545412064,0.2985011041164398
1760107157528584200,7.143584228515625,-0.009204475209116936,-0.08362212032079697,0.35683801770210266
1760107157538650400,7.153650390625,-0.011075079441070557,-0.1019262969493866,0.36257341504096985
1760107157548715300,7.16371533203125,0.019717473536729813,-0.09108945727348328,0.3277473449707031
1760107157558781200,7.17378125,0.06922510266304016,-0.052820902317762375,0.27219274640083313
1760107157568846300,7.183846435546875,0.11741873621940613,-0.026177622377872467,0.20634664595127106
1760107157578911200,7.1939111328125,0.13427549600601196,-0.03757648169994354,0.12980659306049347
1760107157588977400,7.203977294921875,0.11751073598861694,-0.06854257732629776,0.04876802861690521
1760107157599042300,7.214042236328125,0.07571934163570404,-0.0993175357580185,-0.021672846749424934
1760107157609108200,7.224108154296875,0.019812140613794327,-0.11516174674034119,-0.08423742651939392
1760107157619173400,7.23417333984375,-0.03831294924020767,-0.11160216480493546,-0.11932403594255447
1760107157629239300,7.2442392578125,-0.0843772441148758,-0.08900494873523712,-0.12927217781543732
1760107157639304200,7.25430419921875,-0.10559491813182831,-0.06070513650774956,-0.1186075508594513
1760107157649370000,7.2643701171875,-0.09847564995288849,-0.01658489927649498,-0.08461392670869827
1760107157659435300,7.274435302734375,-0.08836735785007477,0.03387933969497681,-0.05341499671339989
1760107157669501200,7.284501220703125,-0.07843125611543655,0.06353797763586044,-0.03598450869321823
1760107157679566000,7.294566162109375,-0.06443741172552109,0.07374241203069687,-0.040885258466005325
1760107157689632300,7.30463232421875,-0.04486919566988945,0.09718026965856552,-0.05886375159025192
1760107157699697200,7.314697265625,-0.012065175920724869,0.10338196903467178,-0.08749912679195404
1760107157709762300,7.32476220703125,0.029815886169672012,0.09041684120893478,-0.09017572551965714
1760107157719828500,7.334828369140625,0.08055735379457474,0.07728798687458038,-0.06203889846801758
1760107157729893000,7.34489306640625,0.1181161105632782,0.08450455218553543,-0.014111711643636227
1760107157739959300,7.354959228515625,0.13603918254375458,0.08586729317903519,0.03910756856203079
1760107157750024200,7.365024169921875,0.13501779735088348,0.07780994474887848,0.07799001783132553
1760107157760090400,7.37509033203125,0.11059954762458801,0.0696292370557785,0.08816488832235336
1760107157770155300,7.3851552734375,0.0740828663110733,0.052338890731334686,0.07512921839952469
1760107157780221200,7.39522119140625,0.033793773502111435,0.035978030413389206,0.044050928205251694
1760107157790286300,7.405286376953125,-0.00551324849948287,0.024252966046333313,0.0056918831542134285
1760107157800352300,7.415352294921875,-0.018489766865968704,0.005356506444513798,-0.02909991890192032
1760107157810417200,7.425417236328125,-0.015716351568698883,-0.007461820729076862,-0.045131880789995193
1760107157820483300,7.4354833984375,0.0023486693389713764,0.0014001140370965004,-0.029726827517151833
1760107157830548200,7.44554833984375,0.014431774616241455,0.010995019227266312,-0.0028074695728719234
1760107157840613400,7.45561328125,0.016896795481443405,0.017860647290945053,0.02711128070950508
1760107157850679000,7.465678955078125,0.0137251615524292,0.0368606336414814,0.06031544879078865
1760107157860744200,7.475744140625,0.004372938070446253,0.06021682545542717,0.07309702038764954
1760107157870810400,7.485810302734375,-0.01279329415410757,0.061361875385046005,0.05961145833134651
1760107157880875300,7.495875244140625,-0.025241442024707794,0.03599286824464798,0.03428293392062187
1760107157890941400,7.50594140625,-0.023936977609992027,0.01735793799161911,0.009098145179450512
1760107157901006300,7.51600634765625,-0.011572454124689102,0.01917394995689392,-0.008937048725783825
1760107157911072300,7.526072265625,-0.0035795082803815603,-0.0017007067799568176,-0.024053150787949562
1760107157921137400,7.536137451171875,0.006005474366247654,-0.03768214210867882,-0.02397085912525654
1760107157931203300,7.546203369140625,0.03236212581396103,-0.05006192624568939,0.0004385558422654867
1760107157941268200,7.556268310546875,0.0658806711435318,-0.05617601051926613,0.03959048539400101
1760107157951334100,7.566334228515625,0.09449006617069244,-0.06381180137395859,0.09558331966400146
1760107157961399300,7.5763994140625,0.10759175568819046,-0.050304513424634933,0.1551358550786972
1760107157971464200,7.586464111328125,0.11508645862340927,-0.04176875576376915,0.194483682513237
1760107157981530000,7.596530029296875,0.11551682651042938,-0.05199795961380005,0.20006699860095978
1760107157991595300,7.60659521484375,0.10998325049877167,-0.0783671960234642,0.1788853108882904
1760107158001661200,7.6166611328125,0.10693393647670746,-0.07005573809146881,0.14537662267684937
1760107158011726300,7.626726318359375,0.12179120630025864,-0.016920190304517746,0.12365325540304184
1760107158021792300,7.636792236328125,0.14037847518920898,0.06108406186103821,0.12255816161632538
1760107158031857200,7.646857177734375,0.1620049625635147,0.14376643300056458,0.13108104467391968
1760107158041923300,7.65692333984375,0.18427778780460358,0.21082057058811188,0.14371375739574432
1760107158051988500,7.666988525390625,0.20505407452583313,0.23129583895206451,0.13378632068634033
1760107158062054100,7.67705419921875,0.2167738378047943,0.1723957657814026,0.08342061191797256
1760107158072119300,7.687119384765625,0.21175575256347656,0.05154920369386673,-0.000646391708869487
1760107158082185200,7.697185302734375,0.18884937465190887,-0.05562198907136917,-0.08728967607021332
1760107158092250400,7.70725048828125,0.1625896692276001,-0.0782107338309288,-0.151912122964859
1760107158102315300,7.717315185546875,0.13985373079776764,-0.022790081799030304,-0.1939796805381775
1760107158112381200,7.727381103515625,0.12853337824344635,0.059214018285274506,-0.21795400977134705
1760107158122446300,7.7374462890625,0.13212358951568604,0.14192460477352142,-0.23140057921409607
1760107158132512300,7.74751220703125,0.140857994556427,0.2095901072025299,-0.2555369734764099
1760107158142577200,7.7575771484375,0.156177818775177,0.2578689455986023,-0.25495240092277527
1760107158152643300,7.767643310546875,0.17657417058944702,0.29971787333488464,-0.22309942543506622
1760107158162708200,7.777708251953125,0.1907389909029007,0.34336841106414795,-0.15606659650802612
1760107158172774400,7.7877744140625,0.20414389669895172,0.3957785665988922,-0.07145193219184875
1760107158182839000,7.797839111328125,0.21875080466270447,0.41146644949913025,0.015308525413274765
1760107158192906000,7.807906005859375,0.24538986384868622,0.36778417229652405,0.0808902382850647
1760107158202971000,7.817970947265625,0.26390841603279114,0.26106706261634827,0.11394219845533371
1760107158213035800,7.828035888671875,0.25806185603141785,0.09751512110233307,0.10708948969841003
1760107158223102000,7.83810205078125,0.22119970619678497,-0.05482088401913643,0.0712268278002739
1760107158233166800,7.848166748046875,0.17815011739730835,-0.13755205273628235,0.039318639785051346
1760107158243233000,7.85823291015625,0.14895281195640564,-0.1353408396244049,0.026455039158463478
1760107158253298000,7.8682978515625,0.14368823170661926,-0.08768187463283539,0.009131927974522114
1760107158263363800,7.87836376953125,0.15456856787204742,-0.030746422708034515,-0.013798421248793602
1760107158273429000,7.888428955078125,0.1709313988685608,-0.002256329171359539,-0.06153073161840439
1760107158283495000,7.898494873046875,0.18451006710529327,-0.0011862711980938911,-0.12826982140541077
1760107158293559800,7.908559814453125,0.16699492931365967,-0.02221103385090828,-0.21733583509922028
1760107158303625700,7.918625732421875,0.13566631078720093,-0.04384202882647514,-0.3065786063671112
1760107158313691000,7.92869091796875,0.10441043227910995,-0.0208083875477314,-0.3783190846443176
1760107158323757000,7.938757080078125,0.052173856645822525,0.025591600686311722,-0.40370699763298035
1760107158333821700,7.94882177734375,0.0027089198119938374,0.069280244410038,-0.3733356297016144
1760107158343886800,7.958886962890625,-0.0006085799541324377,0.13505765795707703,-0.29529890418052673
1760107158353952800,7.968952880859375,0.020488839596509933,0.16293278336524963,-0.18883630633354187
1760107158364018000,7.979017822265625,0.0816081166267395,0.15942539274692535,-0.07855135202407837
1760107158374084000,7.989083984375,0.1662440001964569,0.12341120839118958,0.02498985454440117
1760107158384148700,7.999148681640625,0.23653973639011383,0.07576832920312881,0.10044226795434952
1760107158394215000,8.00921484375,0.26984354853630066,0.05700745806097984,0.13667570054531097
1760107158404280000,8.019280029296874,0.25888222455978394,0.04333345592021942,0.13122980296611786
1760107158414346000,8.029345947265625,0.2134874165058136,0.04636356979608536,0.08707106858491898
1760107158424411000,8.039410888671876,0.1556645929813385,0.030090587213635445,0.016198227182030678
1760107158434476800,8.049476806640625,0.10111591219902039,-0.01744820922613144,-0.059786051511764526
1760107158444542000,8.0595419921875,0.05999564751982689,-0.06558564305305481,-0.11616969853639603
1760107158454606800,8.06960693359375,0.050670407712459564,-0.10597464442253113,-0.12035487592220306
1760107158464672800,8.0796728515625,0.07138367742300034,-0.17527595162391663,-0.08558490872383118
1760107158474738000,8.089738037109376,0.1147119551897049,-0.21303334832191467,0.003900108626112342
1760107158484803800,8.099803955078125,0.1524718552827835,-0.20215833187103271,0.12227655202150345
1760107158494869000,8.109868896484375,0.16184300184249878,-0.1804909110069275,0.2300081104040146
1760107158504935000,8.119934814453124,0.14331698417663574,-0.15565507113933563,0.3078688383102417
1760107158514999800,8.129999755859375,0.11243792623281479,-0.13468608260154724,0.3400077819824219
1760107158525066000,8.14006591796875,0.07137864083051682,-0.11530278623104095,0.32317501306533813
1760107158535131000,8.150130859375,0.02873547002673149,-0.11956238001585007,0.256069153547287
1760107158545196800,8.16019677734375,0.0009808028116822243,-0.14804008603096008,0.15600433945655823
1760107158555262000,8.170261962890624,-0.011485083028674126,-0.18456393480300903,0.0563812181353569
1760107158565326800,8.180326904296875,-0.03331261873245239,-0.19615507125854492,-0.03756924346089363
1760107158575393000,8.19039306640625,-0.0648639053106308,-0.20616894960403442,-0.09823914617300034
1760107158585458000,8.2004580078125,-0.08949735015630722,-0.2009211927652359,-0.12072715163230896
1760107158595523800,8.21052392578125,-0.10207855701446533,-0.1776401251554489,-0.10347311943769455
1760107158605589000,8.220589111328126,-0.10162688791751862,-0.13465991616249084,-0.04504629597067833
1760107158615655000,8.230655029296875,-0.10265155881643295,-0.07330209761857986,0.03509245440363884
1760107158625719800,8.2407197265625,-0.10499274730682373,0.009665491990745068,0.13887718319892883
1760107158635785700,8.25078564453125,-0.1076473593711853,0.10445282608270645,0.24062255024909973
1760107158645851000,8.260850830078125,-0.10821754485368729,0.195257306098938,0.32533958554267883
1760107158655917000,8.2709169921875,-0.10291546583175659,0.255540668964386,0.3738889694213867
1760107158665981700,8.280981689453125,-0.07930015027523041,0.24544063210487366,0.3746442198753357
1760107158676046800,8.291046875,-0.05532843619585037,0.16447585821151733,0.3390043079853058
1760107158686112800,8.30111279296875,-0.032360803335905075,0.061953213065862656,0.2814435362815857
1760107158696178000,8.311177978515625,-0.019999884068965912,-0.012777937576174736,0.22499096393585205
1760107158706244000,8.321244140625,-0.022172223776578903,-0.07272942364215851,0.1750471144914627
1760107158716308700,8.331308837890624,-0.024923553690314293,-0.09138289839029312,0.13409747183322906
1760107158726375000,8.341375,-0.03585689514875412,-0.09622558951377869,0.07664936035871506
1760107158736440000,8.351440185546876,-0.07580533623695374,-0.13076065480709076,-0.03243587538599968
1760107158746506000,8.361506103515625,-0.14954081177711487,-0.17278534173965454,-0.2062114030122757
1760107158756571000,8.37157080078125,-0.2388216257095337,-0.20215551555156708,-0.41356489062309265
1760107158766636800,8.38163671875,-0.30846065282821655,-0.19033534824848175,-0.6126838326454163
1760107158776702000,8.391701904296875,-0.349378377199173,-0.11559844762086868,-0.7526837587356567
1760107158786767000,8.40176708984375,-0.35828185081481934,-0.02121495082974434,-0.8110602498054504
1760107158796832800,8.411832763671875,-0.34469133615493774,0.08744443953037262,-0.7681971192359924
1760107158806898000,8.42189794921875,-0.2618939280509949,0.22595997154712677,-0.6116998791694641
1760107158816963800,8.4319638671875,-0.13871805369853973,0.34963616728782654,-0.3679255247116089
1760107158827029000,8.442029052734375,-0.010704690590500832,0.3989645540714264,-0.07681483775377274
1760107158837094700,8.4520947265625,0.06792997568845749,0.3486982583999634,0.18360598385334015
1760107158847159800,8.462159912109374,0.055672772228717804,0.20786629617214203,0.377081960439682
1760107158857226000,8.47222607421875,-0.017453797161579132,0.018173236399888992,0.487744003534317
1760107158867291000,8.482290771484376,-0.10333142429590225,-0.14814649522304535,0.5120440125465393
1760107158877357000,8.492357177734375,-0.17741398513317108,-0.25020018219947815,0.4661232829093933
1760107158887422000,8.502421875,-0.22167865931987762,-0.2714594006538391,0.3697240352630615
1760107158897486800,8.51248681640625,-0.22707971930503845,-0.22993946075439453,0.24667984247207642
1760107158907553000,8.522552978515625,-0.20754702389240265,-0.15205079317092896,0.09953194856643677
1760107158917618000,8.532617919921876,-0.19345241785049438,-0.08033301681280136,-0.05319077521562576
1760107158927683800,8.542683837890625,-0.1826692670583725,-0.043298572301864624,-0.19506748020648956
1760107158937749000,8.5527490234375,-0.18408207595348358,-0.04289217293262482,-0.311463326215744
1760107158947815000,8.56281494140625,-0.21019090712070465,-0.07060982286930084,-0.38879674673080444
1760107158957879800,8.5728798828125,-0.2526661157608032,-0.10025925934314728,-0.42765745520591736
1760107158967945700,8.58294580078125,-0.28722435235977173,-0.1393515169620514,-0.41033706068992615
1760107158978011000,8.593010986328125,-0.29993733763694763,-0.1472284495830536,-0.3205217719078064
1760107158988076000,8.603075927734375,-0.3009325861930847,-0.10165003687143326,-0.18644414842128754
1760107158998142000,8.613141845703124,-0.27983373403549194,-0.034224193543195724,-0.02760295569896698
1760107159008206800,8.623206787109375,-0.23222681879997253,0.039611149579286575,0.12089730054140091
1760107159018272800,8.633272705078125,-0.15723595023155212,0.10383972525596619,0.22060947120189667
1760107159028338000,8.643337890625,-0.09282499551773071,0.11297409236431122,0.24719475209712982
1760107159038404000,8.653404052734375,-0.05542970448732376,0.08361764252185822,0.20624509453773499
1760107159048468700,8.66346875,-0.04451127350330353,0.03088652342557907,0.12715773284435272
1760107159058535000,8.673534912109375,-0.060794927179813385,-0.01047812681645155,0.035069819539785385
1760107159068600000,8.68360009765625,-0.09825574606657028,-0.04934696480631828,-0.027949094772338867
1760107159078666000,8.693666015625,-0.14779968559741974,-0.07358765602111816,-0.03725031018257141
1760107159088731000,8.70373095703125,-0.17821218073368073,-0.066316157579422,0.0030989760998636484
1760107159098795800,8.713795654296876,-0.1849513053894043,-0.033094506710767746,0.07016931474208832
1760107159108862000,8.723862060546875,-0.18009263277053833,-0.004594156052917242,0.12834954261779785
1760107159118927000,8.733927001953125,-0.17538049817085266,0.019597996026277542,0.16046252846717834
1760107159128992800,8.74399267578125,-0.1849857121706009,0.0332336463034153,0.140372171998024
1760107159139058000,8.754057861328125,-0.20624765753746033,0.017787136137485504,0.0819019004702568
1760107159149123800,8.764123779296876,-0.22212249040603638,0.006370965391397476,0.003992719110101461
1760107159159189000,8.77418896484375,-0.21861521899700165,0.008886939845979214,-0.05531318858265877
1760107159169254700,8.784254638671875,-0.1971522718667984,0.02159367874264717,-0.07569383084774017
1760107159179319800,8.79431982421875,-0.16803890466690063,0.0260758213698864,-0.06484571844339371
1760107159189386000,8.804385986328125,-0.13968662917613983,0.01633184775710106,-0.026016298681497574
1760107159199450400,8.814450439453125,-0.11043272912502289,0.007559905759990215,0.029225293546915054
1760107159209515000,8.824514892578126,-0.08301974833011627,0.005669326521456242,0.0801641047000885
1760107159219581200,8.834581298828125,-0.05292696878314018,0.004737027920782566,0.12433747202157974
1760107159229646000,8.84464599609375,-0.013882365077733994,0.004982305690646172,0.15050064027309418
1760107159239712300,8.854712158203125,0.022685177624225616,-0.013537801802158356,0.16608896851539612
1760107159249777200,8.864777099609375,0.05664154514670372,-0.03258020430803299,0.15906621515750885
1760107159259843000,8.874843017578126,0.07810705155134201,-0.05486224964261055,0.13778357207775116
1760107159269908200,8.884908203125,0.09727568924427032,-0.0571453757584095,0.10668424516916275
1760107159279974100,8.89497412109375,0.11206049472093582,-0.04836355894804001,0.09019413590431213
1760107159290039000,8.9050390625,0.1230178028345108,-0.017279677093029022,0.07611267268657684
1760107159300105200,8.915105224609375,0.12006690353155136,-0.005754975136369467,0.06416092067956924
1760107159310170000,8.925170166015626,0.12527205049991608,-0.004975467920303345,0.05921463295817375
1760107159320235300,8.9352353515625,0.14592066407203674,-0.009333343245089054,0.05895239859819412
1760107159330301000,8.945301025390625,0.1716414839029312,-0.013747000135481358,0.09022935479879379
1760107159340366000,8.955365966796874,0.22331112623214722,0.036928072571754456,0.13807709515094757
1760107159350432300,8.965432373046875,0.2779914140701294,0.06437301635742188,0.1908913105726242
1760107159360497200,8.9754970703125,0.3248172998428345,0.0892111137509346,0.22942040860652924
1760107159370563000,8.98556298828125,0.34787362813949585,0.08820922672748566,0.22759534418582916
1760107159380628200,8.995628173828125,0.34243154525756836,0.02800826169550419,0.16899549961090088
1760107159390694100,9.005694091796874,0.32198965549468994,-0.06877979636192322,0.06982523202896118
1760107159400759300,9.01575927734375,0.31058794260025024,-0.16593892872333527,-0.056625593453645706
1760107159410824000,9.025823974609375,0.3100619614124298,-0.23028382658958435,-0.17932674288749695
1760107159420890000,9.03589013671875,0.3216472864151001,-0.25091373920440674,-0.30320510268211365
1760107159430955300,9.045955322265625,0.3658565580844879,-0.24389655888080597,-0.3871716558933258
1760107159441021200,9.056021240234376,0.4277932643890381,-0.19160425662994385,-0.39058515429496765
1760107159451086000,9.066086181640625,0.4993140399456024,-0.11771725118160248,-0.3236663043498993
1760107159461152000,9.076152099609375,0.5414713621139526,-0.020099934190511703,-0.19779136776924133
1760107159471217200,9.086217041015624,0.5381003022193909,0.07751557230949402,-0.0644863098859787
1760107159481283000,9.096282958984375,0.47963786125183105,0.16732582449913025,0.044490739703178406
1760107159491348000,9.106347900390626,0.3964236378669739,0.23455147445201874,0.0880051851272583
1760107159501414100,9.1164140625,0.3161410093307495,0.2777775526046753,0.07498152554035187
1760107159511479000,9.12647900390625,0.266570508480072,0.26372191309928894,0.025787346065044403
1760107159521544200,9.136544189453126,0.24572288990020752,0.16123604774475098,-0.021267643198370934
1760107159531610400,9.1466103515625,0.26973608136177063,0.04805196821689606,-0.046497367322444916
1760107159541675000,9.156675048828125,0.3375472128391266,-0.05801216512918472,-0.036956414580345154
1760107159551741200,9.1667412109375,0.42057710886001587,-0.13707634806632996,0.015265511348843575
1760107159561806000,9.17680615234375,0.4734695553779602,-0.1420142501592636,0.11253099143505096
1760107159571872300,9.186872314453124,0.464404433965683,-0.06559830158948898,0.2141132801771164
1760107159581937200,9.196937255859375,0.40138599276542664,0.0024903463199734688,0.27553075551986694
1760107159592003000,9.207003173828125,0.33205297589302063,0.04055384546518326,0.2752223610877991
1760107159602068200,9.217068115234374,0.2526059150695801,0.06646929681301117,0.21142199635505676
1760107159612133000,9.227133056640625,0.16207922995090485,0.09204842895269394,0.08210821449756622
1760107159622199000,9.237198974609376,0.07426967471837997,0.12127915769815445,-0.09176166355609894
1760107159632264200,9.24726416015625,0.01424974575638771,0.11561114341020584,-0.2664426565170288
1760107159642330000,9.257330078125,-0.005491400603204966,0.0900886058807373,-0.40211543440818787
1760107159652395300,9.267395263671874,0.02182064764201641,0.06446447223424911,-0.4464317858219147
1760107159662461000,9.2774609375,0.06564997136592865,0.04604819416999817,-0.3990023136138916
1760107159672526000,9.287526123046876,0.10162635147571564,0.025983937084674835,-0.27636268734931946
1760107159682592300,9.29759228515625,0.11387389898300171,0.018615061417222023,-0.1165698766708374
1760107159692657200,9.3076572265625,0.10306812822818756,0.0020222365856170654,0.04020322486758232
1760107159702723000,9.31772314453125,0.046081919223070145,0.011114087887108326,0.1600988358259201
1760107159712788200,9.327788330078125,-0.04960998520255089,0.03186703473329544,0.1940019428730011
1760107159722853000,9.33785302734375,-0.140614852309227,0.046989765018224716,0.14575810730457306
1760107159732919300,9.347919189453124,-0.21067197620868683,0.0660524070262909,0.03401559963822365
1760107159742984000,9.35798388671875,-0.22700640559196472,0.10723064094781876,-0.09688510745763779
1760107159753050000,9.368050048828126,-0.19257545471191406,0.15196695923805237,-0.21089531481266022
1760107159763115300,9.378115234375,-0.11110733449459076,0.17260600626468658,-0.26523256301879883
1760107159773181200,9.38818115234375,-0.020662125200033188,0.17677997052669525,-0.2465486079454422
1760107159783246000,9.39824609375,0.048360779881477356,0.17243938148021698,-0.16325503587722778
1760107159793312000,9.40831201171875,0.07679588347673416,0.1406976878643036,-0.0548262894153595
1760107159803377200,9.418377197265626,0.06799627095460892,0.09990765899419785,0.052223995327949524
1760107159813442300,9.4284423828125,0.03501274064183235,0.06387225538492203,0.13180045783519745
1760107159823508000,9.438508056640625,-0.00830777920782566,0.031846847385168076,0.17241397500038147
1760107159833573000,9.448572998046876,-0.06838549673557281,-0.002234155312180519,0.1722714900970459
1760107159843639000,9.45863916015625,-0.12019991129636765,-0.03855380415916443,0.1361033022403717
1760107159853704200,9.4687041015625,-0.15146063268184662,-0.0803675651550293,0.07822642475366592
1760107159863770400,9.478770263671874,-0.1604606956243515,-0.11702707409858704,0.02200303226709366
1760107159873835000,9.4888349609375,-0.14971910417079926,-0.13869188725948334,-0.016810143366456032
1760107159883901200,9.498901123046876,-0.12558196485042572,-0.15602201223373413,-0.03724372014403343
1760107159893966000,9.508966064453125,-0.08272717148065567,-0.18583104014396667,-0.032871875911951065
1760107159904032300,9.5190322265625,-0.043524108827114105,-0.2191423922777176,-0.014094989746809006
1760107159914097200,9.52909716796875,-0.022894995287060738,-0.22842776775360107,0.021636640653014183
1760107159924162000,9.539162109375,-0.023786548525094986,-0.21155844628810883,0.057278916239738464
1760107159934228200,9.549228271484376,-0.029092896729707718,-0.16860538721084595,0.0793868899345398
1760107159944293000,9.559293212890625,-0.04679889976978302,-0.1389346718788147,0.09188278019428253
1760107159954359000,9.569359130859375,-0.07092022150754929,-0.1165393516421318,0.10341932624578476
1760107159964424200,9.579424072265626,-0.0813959613442421,-0.10382716357707977,0.13104252517223358
1760107159974490000,9.589489990234375,-0.06012662500143051,-0.09983695298433304,0.20534124970436096
1760107159984555300,9.59955517578125,-0.017719285562634468,-0.07275824248790741,0.31403854489326477
1760107159994620200,9.6096201171875,0.03064291924238205,-0.0675717443227768,0.4098779857158661
1760107160004686000,9.61968603515625,0.053221866488456726,-0.10385596752166748,0.4562828838825226
1760107160014751200,9.629751220703126,0.05739477276802063,-0.15644779801368713,0.4432102143764496
1760107160024817200,9.639817138671875,0.03380211442708969,-0.15552832186222076,0.3799642026424408
1760107160034882000,9.649882080078125,-0.01371533703058958,-0.10616423189640045,0.2817377746105194
1760107160044948200,9.6599482421875,-0.08845517039299011,-0.031327053904533386,0.1646006852388382
1760107160055013000,9.67001318359375,-0.17272186279296875,0.057676851749420166,0.015384835191071033
1760107160065079300,9.680079345703126,-0.24983440339565277,0.11642606556415558,-0.16462647914886475
1760107160075144000,9.69014404296875,-0.3080393970012665,0.13957320153713226,-0.35298627614974976
1760107160085210000,9.700210205078125,-0.34968116879463196,0.12474715709686279,-0.5400205850601196
1760107160095275300,9.710275146484374,-0.3780933618545532,0.09096202999353409,-0.7143178582191467
1760107160105340200,9.720340087890625,-0.38617950677871704,0.061473384499549866,-0.8542280793190002
1760107160115406000,9.730406005859376,-0.3465016186237335,0.06806603819131851,-0.921337366104126
1760107160125471200,9.74047119140625,-0.28197622299194336,0.12414869666099548,-0.9033607840538025
1760107160135537200,9.750537109375,-0.22398591041564941,0.17595915496349335,-0.7772329449653625
1760107160145602300,9.760602294921876,-0.14567026495933533,0.22291702032089233,-0.54585862159729
1760107160155668000,9.77066796875,-0.051920343190431595,0.24292215704917908,-0.2304740697145462
1760107160165733000,9.780733154296875,0.017229756340384483,0.2313500940799713,0.11882193386554718
1760107160175799000,9.790799072265624,0.047867827117443085,0.16938365995883942,0.4299984574317932
1760107160185864200,9.8008642578125,0.057763367891311646,0.06852773576974869,0.642612874507904
1760107160195929000,9.81092919921875,0.05655401945114136,-0.05141783878207207,0.734295129776001
1760107160205995000,9.8209951171875,0.04255518317222595,-0.14919966459274292,0.70469731092453
1760107160216060000,9.831059814453125,0.0008356990292668343,-0.22794881463050842,0.5741153359413147
1760107160226126000,9.8411259765625,-0.05404610559344292,-0.26671910285949707,0.3815564811229706
1760107160236191000,9.85119091796875,-0.10888112336397171,-0.24132399260997772,0.16400443017482758
1760107160246257200,9.861257080078126,-0.1486850082874298,-0.15715041756629944,-0.028804248198866844
1760107160256321800,9.87132177734375,-0.18386058509349823,-0.057643793523311615,-0.19774241745471954
1760107160266388000,9.881387939453125,-0.22322595119476318,0.029826682060956955,-0.33126017451286316
1760107160276453000,9.891453125,-0.26054829359054565,0.06856714934110641,-0.4334219694137573
1760107160286518000,9.90151806640625,-0.2771497964859009,0.08215014636516571,-0.4910481870174408
1760107160296584200,9.911584228515625,-0.283791720867157,0.081623375415802,-0.5210718512535095
1760107160306649000,9.921649169921874,-0.27627891302108765,0.06477990746498108,-0.5103237628936768
1760107160316715000,9.931715087890625,-0.2551709711551666,0.05294961482286453,-0.4685728847980499
1760107160326780200,9.9417802734375,-0.22012142837047577,0.05450088530778885,-0.3796381652355194
1760107160336846000,9.95184619140625,-0.1780509501695633,0.06120459735393524,-0.24391843378543854
1760107160346911000,9.961910888671875,-0.13394755125045776,0.07872384786605835,-0.08463505655527115
1760107160356977000,9.971976806640624,-0.09991022944450378,0.0987982228398323,0.06935663521289825
1760107160367042000,9.9820419921875,-0.07099444419145584,0.08358821272850037,0.17262355983257294
1760107160377107000,9.99210693359375,-0.03800773248076439,0.03856268525123596,0.209884911775589
1760107160387172900,10.0021728515625,-0.00583729799836874,-0.011213554069399834,0.1899135261774063
1760107160397238000,10.012238037109375,0.006235610228031874,-0.05829451233148575,0.1286054253578186
1760107160407304000,10.022303955078126,-0.0015116012655198574,-0.08107073605060577,0.05870717018842697
1760107160417369000,10.032369140625,-0.017023447901010513,-0.09277532994747162,-0.0044193328358232975
1760107160427435000,10.04243505859375,-0.025997046381235123,-0.07538788765668869,-0.025773484259843826
1760107160437500000,10.0525,-0.03970779478549957,-0.03265134245157242,-0.009400635957717896
1760107160447566000,10.062566162109375,-0.04331115260720253,0.008871100842952728,0.03038252703845501
1760107160457631200,10.07263134765625,-0.046950627118349075,0.026003748178482056,0.06174657866358757
1760107160467695900,10.08269580078125,-0.04788738116621971,0.00979625154286623,0.0728297084569931
1760107160477762000,10.092761962890625,-0.029138464480638504,-0.01814323663711548,0.08365146815776825
1760107160487827000,10.102826904296874,0.002881129737943411,-0.029531553387641907,0.08844120055437088
1760107160497893000,10.11289306640625,0.038792528212070465,-0.026729639619588852,0.09802405536174774
1760107160507958000,10.1229580078125,0.06451772898435593,-0.00325040053576231,0.10874016582965851
1760107160518024000,10.13302392578125,0.08604831993579865,-0.012233242392539978,0.11451416462659836
1760107160528089000,10.143089111328125,0.09923173487186432,-0.04324585571885109,0.1191578134894371
1760107160538155000,10.153155029296874,0.098675936460495,-0.05596271529793739,0.13230077922344208
1760107160548220000,10.163219970703125,0.07638366520404816,-0.06515900790691376,0.15162396430969238
1760107160558285000,10.17328515625,0.04349468648433685,-0.08136860281229019,0.16454482078552246
1760107160568351000,10.18335107421875,0.0074658771045506,-0.086168572306633,0.17733265459537506
1760107160578416000,10.193416015625,-0.0125240758061409,-0.11978992074728012,0.17354589700698853
1760107160588481800,10.203481689453126,-0.001964548137038946,-0.16856072843074799,0.1761440932750702
1760107160598547000,10.213546875,0.034439265727996826,-0.17980512976646423,0.18406833708286285
1760107160608613000,10.223613037109375,0.08432397991418839,-0.16523988544940948,0.19710327684879303
1760107160618678000,10.233677978515624,0.12824083864688873,-0.14938315749168396,0.21288171410560608
1760107160628743000,10.243742919921875,0.1614585667848587,-0.1327548772096634,0.2326081544160843
1760107160638809000,10.25380908203125,0.175930455327034,-0.11684995144605637,0.25524502992630005
1760107160648874000,10.2638740234375,0.16906318068504333,-0.09278985112905502,0.27592232823371887
1760107160658940200,10.273940185546875,0.17919838428497314,-0.01736966334283352,0.31668174266815186
1760107160669004800,10.2840048828125,0.22265329957008362,0.09424446523189545,0.36642390489578247
1760107160679071000,10.294071044921875,0.29320576786994934,0.1820523589849472,0.417972594499588
1760107160689136000,10.30413623046875,0.3619494140148163,0.20981761813163757,0.4393114745616913
1760107160699202000,10.3142021484375,0.42412543296813965,0.20805513858795166,0.42619991302490234
1760107160709267000,10.324266845703125,0.47008442878723145,0.1894327700138092,0.3908999562263489
1760107160719332000,10.33433203125,0.48946210741996765,0.15395866334438324,0.32518139481544495
1760107160729398000,10.34439794921875,0.4844210147857666,0.12358611077070236,0.23685099184513092
1760107160739463200,10.354463134765625,0.4541800320148468,0.11408208310604095,0.13109207153320312
1760107160749529000,10.364529052734374,0.41253185272216797,0.13499118387699127,0.024195406585931778
1760107160759594000,10.374593994140625,0.3510429263114929,0.15788105130195618,-0.0661936104297638
1760107160769660000,10.384659912109376,0.2938798666000366,0.1696997582912445,-0.13280485570430756
1760107160779725000,10.39472509765625,0.2442217767238617,0.18134522438049316,-0.16032755374908447
1760107160789791200,10.404791259765625,0.21490663290023804,0.20281395316123962,-0.1635494977235794
1760107160799855900,10.41485595703125,0.2149636298418045,0.1935347020626068,-0.15790119767189026
1760107160809921000,10.424921142578125,0.23241141438484192,0.16123616695404053,-0.14222699403762817
1760107160819987000,10.434987060546876,0.2710360288619995,0.10928110033273697,-0.09044928848743439
1760107160830051800,10.4450517578125,0.32232001423835754,0.0861564502120018,-0.0008740182965993881
1760107160840118000,10.455117919921875,0.3645734488964081,0.0820583775639534,0.10319885611534119
1760107160850183000,10.465182861328126,0.3825722932815552,0.0751214548945427,0.20431306958198547
1760107160860249000,10.4752490234375,0.3815717399120331,0.038261979818344116,0.268383651971817
1760107160870314200,10.485314208984375,0.3679197132587433,-0.015027087181806564,0.287122905254364
1760107160880380000,10.4953798828125,0.33841055631637573,-0.06283828616142273,0.25003066658973694
1760107160890445000,10.505445068359375,0.30773043632507324,-0.08923730254173279,0.1660437285900116
1760107160900510000,10.515510009765626,0.29382872581481934,-0.09008738398551941,0.05739101022481918
1760107160910576000,10.525576171875,0.2935296297073364,-0.0793071910738945,-0.054930977523326874
1760107160920641000,10.53564111328125,0.2971688210964203,-0.08127153664827347,-0.16158711910247803
1760107160930707000,10.54570703125,0.3014110326766968,-0.10473944991827011,-0.24790461361408234
1760107160940772000,10.555772216796875,0.3000067472457886,-0.10491815209388733,-0.292853981256485
1760107160950838000,10.565838134765626,0.2800903618335724,-0.07395105063915253,-0.29940924048423767
1760107160960903000,10.57590283203125,0.24163301289081573,-0.02826053462922573,-0.2779518961906433
1760107160970968000,10.585968017578125,0.19142451882362366,0.028920482844114304,-0.22911867499351501
1760107160981034000,10.596033935546876,0.15363693237304688,0.08629216253757477,-0.174500972032547
1760107160991099100,10.60609912109375,0.146116241812706,0.1267881542444229,-0.12745043635368347
1760107161001164800,10.616164794921875,0.16269682347774506,0.14546969532966614,-0.0909305140376091
1760107161011230000,10.62622998046875,0.18442869186401367,0.14574335515499115,-0.06669104099273682
1760107161021296000,10.636296142578125,0.20362715423107147,0.12510918080806732,-0.06340043991804123
1760107161031361000,10.646361083984376,0.2060200721025467,0.09260403364896774,-0.07687084376811981
1760107161041427000,10.656427001953125,0.18493396043777466,0.061502039432525635,-0.11318810284137726
1760107161051492000,10.6664921875,0.15640302002429962,0.023879878222942352,-0.15280300378799438
1760107161061557000,10.676556884765626,0.13269956409931183,-0.000023057684302330017,-0.18480993807315826
1760107161071623200,10.686623046875,0.1212664395570755,-0.010124409571290016,-0.19819694757461548
1760107161081687800,10.696687744140625,0.1153707280755043,-0.016118653118610382,-0.1852734237909317
1760107161091754000,10.70675390625,0.11054462194442749,-0.014391520991921425,-0.1702118068933487
1760107161101819100,10.716819091796875,0.11249538511037827,-0.0009209867566823959,-0.14851263165473938
1760107161111885000,10.726885009765626,0.1195889413356781,0.02202635630965233,-0.13307256996631622
1760107161121950000,10.736949951171875,0.11750821024179459,0.03483749181032181,-0.12746475636959076
1760107161132015900,10.747015869140625,0.09172334522008896,0.0451839417219162,-0.12792304158210754
1760107161142081000,10.7570810546875,0.06585180014371872,0.06030164286494255,-0.11945152282714844
1760107161152146200,10.767146240234375,0.05513051524758339,0.06747715920209885,-0.09537653625011444
1760107161162211800,10.7772119140625,0.06023845821619034,0.06165362894535065,-0.045711785554885864
1760107161172277000,10.787277099609375,0.07718679308891296,0.04090021550655365,0.02011997252702713
1760107161182343000,10.797343017578125,0.09230609238147736,0.016609523445367813,0.09324052184820175
1760107161192408000,10.807407958984374,0.0991176888346672,-0.020843205973505974,0.14647668600082397
1760107161202474200,10.81747412109375,0.07923399657011032,-0.06756490468978882,0.16684508323669434
1760107161212539100,10.8275390625,0.039380524307489395,-0.11383878439664841,0.14793895184993744
1760107161222604300,10.837604248046874,0.00042859697714447975,-0.1346154361963272,0.11147867143154144
1760107161232670200,10.847670166015625,-0.03606104850769043,-0.12635387480258942,0.0770556777715683
1760107161242735000,10.857735107421876,-0.06061059981584549,-0.10987850278615952,0.04624930024147034
1760107161252801300,10.86780126953125,-0.08241988718509674,-0.09119082242250443,0.029587052762508392
1760107161262866200,10.8778662109375,-0.10051606595516205,-0.07458841055631638,0.02826053276658058
1760107161272932400,10.887932373046874,-0.12466438114643097,-0.03082784079015255,0.029412146657705307
1760107161282997200,10.897997314453125,-0.14666235446929932,0.022943511605262756,0.03496084362268448
1760107161293063200,10.908063232421876,-0.17439131438732147,0.06867684423923492,0.042338017374277115
1760107161303128300,10.91812841796875,-0.18821153044700623,0.10348089784383774,0.056175004690885544
1760107161313193200,10.928193115234375,-0.18681450188159943,0.09898732602596283,0.08352017402648926
1760107161323259400,10.93825927734375,-0.1624593585729599,0.029088139533996582,0.11453641951084137
1760107161333324300,10.94832421875,-0.13825178146362305,-0.08637206256389618,0.13899396359920502
1760107161343390200,10.95839013671875,-0.12592187523841858,-0.20427127182483673,0.15457426011562347
1760107161353455400,10.968455322265624,-0.11835649609565735,-0.26602038741111755,0.15540507435798645
1760107161363521300,10.978521240234375,-0.12327136099338531,-0.2565198540687561,0.13640448451042175
1760107161373586200,10.988586181640626,-0.13479074835777283,-0.22202280163764954,0.09067042171955109
1760107161383651300,10.9986513671875,-0.18418732285499573,-0.18380111455917358,-0.012728404253721237
1760107161393717200,11.00871728515625,-0.24395430088043213,-0.157928466796875,-0.17706835269927979
1760107161403782400,11.018782470703124,-0.2899731993675232,-0.14309653639793396,-0.36589208245277405
1760107161413848000,11.02884814453125,-0.29801246523857117,-0.11988575756549835,-0.5253163576126099
1760107161423913200,11.038913330078126,-0.28072670102119446,-0.05191123113036156,-0.6029000878334045
1760107161433979400,11.0489794921875,-0.26695355772972107,0.07213573902845383,-0.5955869555473328
1760107161444044300,11.059044189453125,-0.26327359676361084,0.19607819616794586,-0.5211068987846375
1760107161454110200,11.069110107421874,-0.2402922511100769,0.31098002195358276,-0.3750406503677368
1760107161464175000,11.079175048828125,-0.19793947041034698,0.37956148386001587,-0.19049318134784698
1760107161474240300,11.089240234375,-0.15461502969264984,0.3961177468299866,-0.0024287833366543055
1760107161484306400,11.099306396484375,-0.12049060314893723,0.33689358830451965,0.14209617674350739
1760107161494371000,11.10937109375,-0.0985495001077652,0.2322588413953781,0.23155713081359863
1760107161504437200,11.119437255859374,-0.08892935514450073,0.11169621348381042,0.27949321269989014
1760107161514502400,11.12950244140625,-0.09699498116970062,0.00315756443887949,0.2915876507759094
1760107161524568300,11.139568359375,-0.12013784795999527,-0.07586801052093506,0.2738240957260132
1760107161534633200,11.14963330078125,-0.15673714876174927,-0.11330486088991165,0.2295415997505188
1760107161544698000,11.159697998046875,-0.1734069436788559,-0.14586468040943146,0.1696404367685318
1760107161554764300,11.169764404296876,-0.17838308215141296,-0.13291965425014496,0.09422297775745392
1760107161564829400,11.179829345703125,-0.16396819055080414,-0.07040461897850037,0.007628960534930229
1760107161574895400,11.189895263671875,-0.15958447754383087,-0.026163719594478607,-0.09707353264093399
1760107161584960300,11.199960205078124,-0.1708320826292038,-0.018213383853435516,-0.21509099006652832
1760107161595026200,11.210026123046875,-0.19097565114498138,-0.039103493094444275,-0.3352251946926117
1760107161605091300,11.22009130859375,-0.20916317403316498,-0.06508103013038635,-0.4209004044532776
1760107161615157200,11.2301572265625,-0.22152501344680786,-0.05796993523836136,-0.45964476466178894
1760107161625222100,11.24022216796875,-0.2245945781469345,-0.0314541719853878,-0.4441598057746887
1760107161635287300,11.250287353515626,-0.20823818445205688,-0.0018025441095232964,-0.3867698311805725
1760107161645353200,11.260353271484375,-0.1584930121898651,0.03678479790687561,-0.29812386631965637
1760107161655418000,11.270418212890625,-0.07910338044166565,0.07974345237016678,-0.1849227249622345
1760107161665484300,11.280484375,0.004997116979211569,0.11748789995908737,-0.06983474642038345
1760107161675549200,11.290549072265625,0.07393815368413925,0.13859710097312927,0.03316811844706535
1760107161685615400,11.300615478515626,0.11681238561868668,0.1452653855085373,0.11459080874919891
1760107161695680300,11.31068017578125,0.13030076026916504,0.12951624393463135,0.1536055952310562
1760107161705745200,11.3207451171875,0.1149660125374794,0.10095304250717163,0.15008915960788727
1760107161715811300,11.330811279296874,0.09760281443595886,0.06311438977718353,0.11881764233112335
1760107161725876200,11.340876220703125,0.09261178225278854,0.01839139685034752,0.07535911351442337
1760107161735942400,11.3509423828125,0.09658259153366089,-0.009228943847119808,0.036844056099653244
1760107161746007300,11.36100732421875,0.10586130619049072,-0.028745122253894806,0.010150125250220299
1760107161756073200,11.3710732421875,0.09998335689306259,-0.036974307149648666,-0.011207792907953262
1760107161766138400,11.381138427734374,0.08901992440223694,-0.032927367836236954,-0.02376619353890419
1760107161776203300,11.391203369140625,0.07394088804721832,-0.02527744136750698,-0.03436725214123726
1760107161786269200,11.401269287109375,0.052347179502248764,-0.01561815571039915,-0.03150408715009689
1760107161796334300,11.411334228515624,0.027138160541653633,0.0035798856988549232,-0.01949509233236313
1760107161806400300,11.421400146484375,0.010472365655004978,0.03639508783817291,-0.009152173064649105
1760107161816465400,11.43146533203125,-0.004405801650136709,0.05823633074760437,-0.0013086203252896667
1760107161826531000,11.441531005859375,-0.009745173156261444,0.057299695909023285,-0.007483159191906452
1760107161836596200,11.45159619140625,-0.005965463351458311,0.04486687481403351,-0.0072357626631855965
1760107161846662400,11.461662353515624,0.009249708615243435,0.046474359929561615,-0.00012166053056716919
1760107161856727300,11.471727294921875,0.026223042979836464,0.05033469200134277,0.010044904425740242
1760107161866792200,11.481792236328126,0.024357499554753304,0.0573505237698555,0.019693270325660706
1760107161876858000,11.491858154296875,0.02230226993560791,0.06184607744216919,0.020010631531476974
1760107161886923300,11.50192333984375,0.018099268898367882,0.07337889820337296,0.011772407218813896
1760107161896989400,11.511989501953124,0.009754054248332977,0.08651453256607056,-0.0014343850780278444
1760107161907054000,11.52205419921875,0.012075798586010933,0.10200347751379013,-0.01759151741862297
1760107161917120300,11.532120361328126,0.02177497372031212,0.08502405136823654,-0.033328987658023834
1760107161927185400,11.542185302734374,0.05207162722945213,0.044715240597724915,-0.040067318826913834
1760107161937250300,11.552250244140625,0.09397263079881668,-0.0017941119149327278,-0.022002002224326134
1760107161947316200,11.562316162109376,0.13901548087596893,-0.03927144408226013,0.01978219486773014
1760107161957381400,11.57238134765625,0.17295688390731812,-0.06679867208003998,0.0739818587899208
1760107161967447300,11.582447265625,0.1896466463804245,-0.09566520899534225,0.11864999681711197
1760107161977512400,11.592512451171874,0.20104755461215973,-0.11671677231788635,0.15173856914043427
1760107161987578000,11.602578125,0.21213430166244507,-0.10566891729831696,0.16351747512817383
1760107161997643300,11.612643310546876,0.21588359773159027,-0.05444629490375519,0.1668996661901474
1760107162007709200,11.622709228515625,0.21948711574077606,0.02863501012325287,0.17133063077926636
1760107162017774300,11.6327744140625,0.22515986859798431,0.12488306313753128,0.17164722084999084
1760107162027839200,11.642839111328126,0.2252320498228073,0.1722862720489502,0.16037513315677643
1760107162037905200,11.6529052734375,0.2339610904455185,0.17401227355003357,0.12154597789049149
1760107162047970300,11.66297021484375,0.2551089823246002,0.14906378090381622,0.0696319118142128
1760107162058036200,11.6730361328125,0.27159684896469116,0.07770986109972,-0.011965322308242321
1760107162068101000,11.68310107421875,0.27796393632888794,-0.0274924598634243,-0.11904037743806839
1760107162078167300,11.693167236328126,0.2946391999721527,-0.06431451439857483,-0.2192482203245163
1760107162088232200,11.703232177734375,0.30918964743614197,-0.01953638717532158,-0.2986399531364441
1760107162098297300,11.71329736328125,0.3263322710990906,0.035087138414382935,-0.34864887595176697
1760107162108363300,11.72336328125,0.3576182723045349,0.0867743045091629,-0.3604013919830322
1760107162118428200,11.73342822265625,0.3901360332965851,0.10096319764852524,-0.3477209210395813
1760107162128494300,11.743494384765626,0.425520658493042,0.10951567441225052,-0.30881479382514954
1760107162138559200,11.753559326171874,0.4433443248271942,0.12886151671409607,-0.23791053891181946
1760107162148625400,11.76362548828125,0.4508698880672455,0.1786051094532013,-0.14384634792804718
1760107162158690300,11.773690185546876,0.4691498279571533,0.24072083830833435,-0.030256595462560654
1760107162168755200,11.783755126953125,0.5175501108169556,0.29349270462989807,0.08141693472862244
1760107162178821400,11.7938212890625,0.5853370428085327,0.3076380491256714,0.175963893532753
1760107162188886300,11.80388623046875,0.6354249715805054,0.26040956377983093,0.246644988656044
1760107162198952400,11.813952392578125,0.6598001718521118,0.16925983130931854,0.30046629905700684
1760107162209017300,11.824017333984376,0.6448273658752441,0.0718027874827385,0.3225513696670532
1760107162219083300,11.834083251953125,0.6008601784706116,-0.04504077136516571,0.3096539378166199
1760107162229148400,11.8441484375,0.542016327381134,-0.14219263195991516,0.2516745328903198
1760107162239213600,11.854213623046874,0.4837266504764557,-0.2002832591533661,0.16365404427051544
1760107162249279500,11.864279541015625,0.43762892484664917,-0.21083790063858032,0.05718886852264404
1760107162259344400,11.874344482421876,0.40917423367500305,-0.18391187489032745,-0.060179561376571655
1760107162269410300,11.884410400390625,0.3767848610877991,-0.11907642334699631,-0.1670231819152832
1760107162279475500,11.894475341796875,0.34217315912246704,-0.021598951891064644,-0.24980056285858154
1760107162289541400,11.904541259765624,0.29476168751716614,0.07644292712211609,-0.3078974485397339
1760107162299606300,11.914606201171875,0.2430115044116974,0.13900911808013916,-0.34923750162124634
1760107162309672400,11.92467236328125,0.19755961000919342,0.16490037739276886,-0.36502018570899963
1760107162319737300,11.9347373046875,0.16723011434078217,0.1616101861000061,-0.3427189886569977
1760107162329802200,11.94480224609375,0.15975436568260193,0.12178207188844681,-0.2830665707588196
1760107162339868400,11.954868408203126,0.17099599540233612,0.07306495308876038,-0.18307122588157654
1760107162349933300,11.964933349609375,0.20252063870429993,0.04569218307733536,-0.04705961048603058
1760107162359999500,11.97499951171875,0.2366085797548294,0.04368218779563904,0.08214745670557022
1760107162370064400,11.985064453125,0.25627416372299194,0.05483764037489891,0.17418736219406128
1760107162380130300,11.99513037109375,0.24362361431121826,0.0659259781241417,0.20949502289295197
1760107162390195500,12.005195556640626,0.20942746102809906,0.07712326943874359,0.186071515083313
1760107162400260400,12.01526025390625,0.16636158525943756,0.09327398240566254,0.12270260602235794
1760107162410326500,12.025326416015625,0.13120174407958984,0.09800535440444946,0.042875681072473526
1760107162420391400,12.035391357421876,0.112087681889534,0.11761586368083954,-0.031033998355269432
1760107162430457300,12.045457275390625,0.09596490859985352,0.14071159064769745,-0.07418493181467056
1760107162440522500,12.0555224609375,0.09168872982263565,0.14412616193294525,-0.08227072656154633
1760107162450588400,12.06558837890625,0.09051720798015594,0.1338849812746048,-0.0635918527841568
1760107162460653300,12.0756533203125,0.09064048528671265,0.1356489658355713,-0.017626961693167686
1760107162470718500,12.085718505859376,0.08044110983610153,0.1467684656381607,0.03650578111410141
1760107162480784400,12.095784423828125,0.058312706649303436,0.13614416122436523,0.09379349648952484
1760107162490849500,12.105849609375,0.025696173310279846,0.10435506701469421,0.13301385939121246
1760107162500915200,12.115915283203124,0.0020783389918506145,0.0637173131108284,0.16707421839237213
1760107162510980400,12.12598046875,-0.006128458306193352,0.006662551313638687,0.19981032609939575
1760107162521046500,12.136046630859376,-0.009680220857262611,-0.04661508649587631,0.2339133769273758
1760107162531111400,12.146111328125,-0.029248595237731934,-0.07547257095575333,0.25640669465065
1760107162541176300,12.15617626953125,-0.06663691252470016,-0.07770680636167526,0.25399067997932434
1760107162551242200,12.1662421875,-0.10969915986061096,-0.06395557522773743,0.22340214252471924
1760107162561307400,12.176307373046875,-0.14877638220787048,-0.0454392172396183,0.15999647974967957
1760107162571373600,12.18637353515625,-0.1746380776166916,-0.05095915123820305,0.08312194794416428
1760107162581438200,12.196438232421874,-0.19545623660087585,-0.07139089703559875,0.02248919941484928
1760107162591504400,12.20650439453125,-0.20107737183570862,-0.05844340845942497,-0.0019298563711345196
1760107162601569500,12.216569580078126,-0.20330415666103363,-0.040394678711891174,0.020671982318162918
1760107162611634400,12.226634521484375,-0.17956659197807312,0.01896851509809494,0.10215512663125992
1760107162621700400,12.236700439453125,-0.1538986712694168,0.12435391545295715,0.22376997768878937
1760107162631765200,12.24676513671875,-0.1380499303340912,0.17977643013000488,0.33713674545288086
1760107162641831400,12.25683154296875,-0.13474836945533752,0.15379561483860016,0.3994891047477722
1760107162651896600,12.266896484375,-0.1383332461118698,0.07833041250705719,0.3980872333049774
1760107162661962200,12.276962158203125,-0.13567663729190826,-0.018297437578439713,0.3330822288990021
1760107162672027400,12.28702734375,-0.1342334747314453,-0.09988044202327728,0.23542143404483795
1760107162682092500,12.297092529296876,-0.1459706574678421,-0.15210838615894318,0.11537592113018036
1760107162692158500,12.307158447265625,-0.1817726045846939,-0.1806420236825943,-0.01390750240534544
1760107162702223400,12.317223388671875,-0.2461734116077423,-0.1827913224697113,-0.1476592719554901
1760107162712289300,12.327289306640624,-0.3403819501399994,-0.18230023980140686,-0.3061375916004181
1760107162722354400,12.3373544921875,-0.4534599483013153,-0.14743585884571075,-0.4889034330844879
1760107162732420400,12.34742041015625,-0.5319822430610657,-0.0830502063035965,-0.6475598812103271
