time,seconds_elapsed,z,y,x
1760107150443741700,0.05874169921875,0.21749770641326904,-0.14314304292201996,-0.5506527423858643
1760107150453807900,0.068807861328125,0.3076305091381073,-0.07227899134159088,-0.5533654689788818
1760107150463873000,0.078873046875,0.35141342878341675,0.09228838235139847,-0.49973365664482117
1760107150473938700,0.088938720703125,0.3411421477794647,0.26497334241867065,-0.40822476148605347
1760107150484003800,0.09900390625,0.2981760501861572,0.3375000059604645,-0.3183726370334625
1760107150494069800,0.10906982421875,0.2328265905380249,0.2997145354747772,-0.23533661663532257
1760107150504135000,0.119135009765625,0.18666867911815643,0.19363844394683838,-0.16187891364097595
1760107150514200600,0.12920068359375,0.15845489501953125,0.08390821516513824,-0.09886905550956726
1760107150524265700,0.139265625,0.1460520178079605,-0.0006897587445564568,-0.04746126011013985
1760107150534332000,0.149331787109375,0.14346076548099518,-0.06488605588674545,-0.008443285711109638
1760107150544396800,0.159396728515625,0.13910461962223053,-0.11987686902284622,0.01158554945141077
1760107150554463000,0.169462890625,0.11281044036149979,-0.1730484813451767,0.024943700060248375
1760107150564527900,0.17952783203125,0.07160334289073944,-0.18999284505844116,0.02502971887588501
1760107150574593800,0.18959375,0.015108378604054451,-0.1578546166419983,-0.00013608753215521574
1760107150584659000,0.199658935546875,-0.045407962054014206,-0.12012454122304916,-0.05607711896300316
1760107150594724900,0.209724853515625,-0.07883036881685257,-0.07944688946008682,-0.1483663022518158
1760107150604789800,0.219789794921875,-0.07115700095891953,-0.046482548117637634,-0.2587175667285919
1760107150614855700,0.229855712890625,-0.04050641506910324,0.009812416508793831,-0.36536866426467896
1760107150624920800,0.2399208984375,0.003952663857489824,0.049555569887161255,-0.43855178356170654
1760107150634986800,0.24998681640625,0.038184668868780136,0.08535777777433395,-0.44459661841392517
1760107150645051600,0.2600517578125,0.06749648600816727,0.13731737434864044,-0.37929433584213257
1760107150655117800,0.270117919921875,0.09198185801506042,0.18737629055976868,-0.26728948950767517
1760107150665182700,0.2801826171875,0.12589775025844574,0.21309790015220642,-0.1337982714176178
1760107150675249000,0.290248779296875,0.15253041684627533,0.21687158942222595,0.0019534286111593246
1760107150685313800,0.300313720703125,0.16206960380077362,0.18950414657592773,0.11262108385562897
1760107150695379700,0.310379638671875,0.1389315277338028,0.13995550572872162,0.17711326479911804
1760107150705444900,0.32044482421875,0.09663280099630356,0.07846950739622116,0.19906197488307953
1760107150715510800,0.3305107421875,0.06926508992910385,0.03911064937710762,0.17118026316165924
1760107150725576000,0.340575927734375,0.05221526697278023,0.010545052587985992,0.10574693232774734
1760107150735641600,0.3506416015625,0.05982019007205963,-0.012448679655790329,0.019246133044362068
1760107150745706800,0.360706787109375,0.08081069588661194,0.012741095386445522,-0.07422416657209396
1760107150755773000,0.37077294921875,0.09158317744731903,0.06494437903165817,-0.17249827086925507
1760107150765838800,0.3808388671875,0.09025426208972931,0.09252966940402985,-0.2690999209880829
1760107150775903700,0.39090380859375,0.06238321587443352,0.06319281458854675,-0.3634434640407562
1760107150785969700,0.4009697265625,0.02743641845881939,-0.01943974383175373,-0.45038020610809326
1760107150796034800,0.411034912109375,0.03009798191487789,-0.1477700173854828,-0.5274446606636047
1760107150806100700,0.421100830078125,0.06967148929834366,-0.3011800944805145,-0.5693026185035706
1760107150816166000,0.431165771484375,0.11260510981082916,-0.34894654154777527,-0.5604143142700195
1760107150826231800,0.441231689453125,0.1300554722547531,-0.2790244519710541,-0.5161003470420837
1760107150836296700,0.451296630859375,0.12040150910615921,-0.1819053590297699,-0.4533807933330536
1760107150846363000,0.46136279296875,0.10031408816576004,-0.03362720087170601,-0.3773456811904907
1760107150856428000,0.471427978515625,0.09015625715255737,0.14667145907878876,-0.30935704708099365
1760107150866493700,0.48149365234375,0.0795920342206955,0.21144060790538788,-0.277614563703537
1760107150876558800,0.491558837890625,0.08934000134468079,0.08334016054868698,-0.2630462646484375
1760107150886624800,0.501624755859375,0.1436501145362854,-0.11779694259166718,-0.2232418805360794
1760107150896690000,0.51168994140625,0.21585293114185333,-0.285004585981369,-0.13235297799110413
1760107150906755800,0.521755859375,0.27760523557662964,-0.3674118220806122,-0.0106491819024086
1760107150916820700,0.53182080078125,0.3180038034915924,-0.36951199173927307,0.1330597847700119
1760107150926887000,0.541886962890625,0.32838958501815796,-0.2899612486362457,0.2748296856880188
1760107150936951800,0.551951904296875,0.31105586886405945,-0.14948242902755737,0.3999234437942505
1760107150947018000,0.56201806640625,0.2739620506763458,0.015086008235812187,0.4897089898586273
1760107150957082600,0.57208251953125,0.23886451125144958,0.15437571704387665,0.5313959717750549
1760107150967148800,0.582148681640625,0.2176433801651001,0.22220644354820251,0.5167824029922485
1760107150977214000,0.5922138671875,0.21131063997745514,0.2548067271709442,0.4580754339694977
1760107150987280000,0.60227978515625,0.2090349793434143,0.2553446888923645,0.35474103689193726
1760107150997344800,0.6123447265625,0.21693044900894165,0.2112097144126892,0.22482645511627197
1760107151007410700,0.62241064453125,0.2312188446521759,0.1544734686613083,0.08529146015644073
1760107151017475800,0.632475830078125,0.22601555287837982,0.15350539982318878,-0.05389971658587456
1760107151027541800,0.642541748046875,0.19343923032283783,0.17660114169120789,-0.18031305074691772
1760107151037606700,0.652606689453125,0.16072949767112732,0.18778081238269806,-0.2789275050163269
1760107151047672800,0.6626728515625,0.13831846415996552,0.24305978417396545,-0.33499690890312195
1760107151057737700,0.67273779296875,0.14054512977600098,0.3396446406841278,-0.34963175654411316
1760107151067804000,0.682803955078125,0.1589377224445343,0.4259113669395447,-0.32578903436660767
1760107151077868800,0.692868896484375,0.19969606399536133,0.4874833822250366,-0.2723364531993866
1760107151087934700,0.702934814453125,0.23279009759426117,0.5320470929145813,-0.21050557494163513
1760107151098000000,0.712999755859375,0.26798003911972046,0.5453682541847229,-0.14069586992263794
1760107151108065800,0.723065673828125,0.29790040850639343,0.4874785840511322,-0.0803142786026001
1760107151118131000,0.733130859375,0.3293246328830719,0.37870362401008606,-0.023909060284495354
1760107151128196600,0.743196533203125,0.3672323226928711,0.24304114282131195,0.04806313291192055
1760107151138261800,0.75326171875,0.40427690744400024,0.12683917582035065,0.14536678791046143
1760107151148328000,0.763327880859375,0.4173673987388611,0.04842638969421387,0.2658684253692627
1760107151158392800,0.773392822265625,0.40211042761802673,0.015870310366153717,0.38878369331359863
1760107151168458800,0.783458740234375,0.35114550590515137,0.006976683158427477,0.48578375577926636
1760107151178524000,0.79352392578125,0.28244367241859436,-0.007998005487024784,0.5505523681640625
1760107151188589600,0.803589599609375,0.22659265995025635,0.012279835529625416,0.5806514024734497
1760107151198654700,0.81365478515625,0.20461972057819366,0.09154562652111053,0.5694330930709839
1760107151208720600,0.823720703125,0.24800580739974976,0.23315416276454926,0.43134820461273193
1760107151218785800,0.833785888671875,0.3093365430831909,0.2265005111694336,0.28970664739608765
1760107151228851700,0.843851806640625,0.36685097217559814,0.2134193331003189,0.17916442453861237
1760107151238916600,0.85391650390625,0.3902473747730255,0.2898035943508148,0.06660619378089905
1760107151248982800,0.863982666015625,0.35729289054870605,0.3434220850467682,-0.03701900318264961
1760107151259047700,0.874047607421875,0.30945372581481934,0.34139034152030945,-0.12331660836935043
1760107151269113900,0.88411376953125,0.2653677463531494,0.34854361414909363,-0.17133073508739471
1760107151279178500,0.894178466796875,0.2337041050195694,0.33520248532295227,-0.1731310337781906
1760107151289244700,0.90424462890625,0.2009429633617401,0.29394108057022095,-0.1554092913866043
1760107151299309800,0.914309814453125,0.16920766234397888,0.22142294049263,-0.13294073939323425
1760107151309375700,0.924375732421875,0.1430700719356537,0.10052554309368134,-0.11108338087797165
1760107151319440600,0.934440673828125,0.11901213973760605,-0.020242420956492424,-0.07337940484285355
1760107151329506600,0.944506591796875,0.09370651841163635,-0.08552368730306625,-0.0016314524691551924
1760107151339571700,0.95457177734375,0.07598451524972916,-0.10291626304388046,0.10457248240709305
1760107151349637600,0.9646376953125,0.07326356321573257,-0.07072823494672775,0.2247614711523056
1760107151359702500,0.97470263671875,0.09863442927598953,0.02111220918595791,0.331668496131897
1760107151369768700,0.984768798828125,0.15195970237255096,0.11049695312976837,0.3990485966205597
1760107151379833600,0.99483349609375,0.20940515398979187,0.1631268709897995,0.39457422494888306
1760107151389899800,1.004899658203125,0.25266340374946594,0.17342744767665863,0.3345329761505127
1760107151399964700,1.014964599609375,0.28141143918037415,0.13803750276565552,0.23518215119838715
1760107151410030600,1.025030517578125,0.2901119887828827,0.0886760726571083,0.13201528787612915
1760107151420095700,1.035095703125,0.2923647463321686,0.06462959200143814,0.05354391783475876
1760107151430161700,1.04516162109375,0.2975195646286011,0.06270492821931839,0.020778780803084373
1760107151440226800,1.055226806640625,0.29807138442993164,0.0521196611225605,0.022698653861880302
1760107151450292500,1.06529248046875,0.29180389642715454,0.039499737322330475,0.04605484381318092
1760107151460357600,1.075357666015625,0.2716810405254364,0.0213572196662426,0.08438785374164581
1760107151470423800,1.085423828125,0.23647086322307587,-0.022698387503623962,0.11690398305654526
1760107151480488700,1.09548876953125,0.20677554607391357,-0.08433085680007935,0.12722745537757874
1760107151490554600,1.1055546875,0.1808566004037857,-0.14944754540920258,0.11746297776699066
1760107151500619800,1.115619873046875,0.13629339635372162,-0.16970114409923553,0.05800018459558487
1760107151510685700,1.125685791015625,0.10345395654439926,-0.15419569611549377,-0.02822151780128479
1760107151520750800,1.135750732421875,0.10926151275634766,-0.11415719985961914,-0.11474868655204773
1760107151530816800,1.145816650390625,0.13031859695911407,-0.06228974089026451,-0.18858829140663147
1760107151540881700,1.155881591796875,0.14060132205486298,-0.029875872656702995,-0.24224671721458435
1760107151550947600,1.165947509765625,0.1358843296766281,0.009561280719935894,-0.2715817093849182
1760107151561012700,1.1760126953125,0.12049205601215363,0.050334811210632324,-0.26661357283592224
1760107151571078700,1.18607861328125,0.10203688591718674,0.06723149865865707,-0.23560479283332825
1760107151581143600,1.1961435546875,0.08057260513305664,0.07144276052713394,-0.19039763510227203
1760107151591209700,1.206209716796875,0.04785913601517677,0.04806632921099663,-0.14299577474594116
1760107151601274600,1.216274658203125,0.015023690648376942,0.009185242466628551,-0.10130158811807632
1760107151611340800,1.2263408203125,0.0038655782118439674,-0.011783688329160213,-0.0775696262717247
1760107151621405700,1.23640576171875,0.010726413689553738,-0.009988452307879925,-0.05862389877438545
1760107151631471600,1.2464716796875,0.03484480082988739,0.0038256309926509857,-0.06271398067474365
1760107151641536800,1.256536865234375,0.05860072746872902,0.018064221367239952,-0.07502524554729462
1760107151651602700,1.266602783203125,0.08047939836978912,0.049135588109493256,-0.08465736359357834
1760107151661667600,1.27666748046875,0.0845835953950882,0.07330989837646484,-0.08218435198068619
1760107151671733500,1.2867333984375,0.06748396903276443,0.0699271559715271,-0.07573390752077103
1760107151681798700,1.296798583984375,0.045951247215270996,0.0520288459956646,-0.0614234134554863
1760107151691864800,1.30686474609375,0.031149929389357567,0.026486201211810112,-0.038955122232437134
1760107151701929500,1.316929443359375,0.01834758184850216,0.0011520835105329752,-0.014658304862678051
1760107151711995600,1.32699560546875,-0.0025893915444612503,-0.018259963020682335,0.0008913599886000156
1760107151722060800,1.337060791015625,-0.020177174359560013,-0.04258314520120621,-0.004237089306116104
1760107151732126700,1.347126708984375,-0.029165076091885567,-0.06409669667482376,-0.01798166334629059
1760107151742191900,1.35719189453125,-0.037685327231884,-0.07511525601148605,-0.04466014727950096
1760107151752257500,1.367257568359375,-0.04815714433789253,-0.09391850233078003,-0.06540963053703308
1760107151762322700,1.37732275390625,-0.0709759071469307,-0.10945911705493927,-0.07365690916776657
1760107151772388600,1.387388671875,-0.10167896002531052,-0.12106677144765854,-0.059836167842149734
1760107151782453800,1.397453857421875,-0.13316337764263153,-0.13025414943695068,-0.0141152860596776
1760107151792519700,1.407519775390625,-0.1535315066576004,-0.1421443521976471,0.04241377115249634
1760107151802584600,1.41758447265625,-0.1684689074754715,-0.16984735429286957,0.10298017412424088
1760107151812650800,1.427650634765625,-0.17389589548110962,-0.20084361732006073,0.15341299772262573
1760107151822715600,1.437715576171875,-0.16389678418636322,-0.2049179971218109,0.1941993087530136
1760107151832781800,1.44778173828125,-0.14375263452529907,-0.20478004217147827,0.22081732749938965
1760107151842846700,1.4578466796875,-0.13262541592121124,-0.19712744653224945,0.22854529321193695
1760107151852912600,1.46791259765625,-0.12989754974842072,-0.16472503542900085,0.2162313610315323
1760107151862977800,1.477977783203125,-0.1388676017522812,-0.13224086165428162,0.18033036589622498
1760107151873043700,1.488043701171875,-0.1538068801164627,-0.11358728259801865,0.13701510429382324
1760107151883108600,1.498108642578125,-0.1720665693283081,-0.12153202295303345,0.10200412571430206
1760107151893174500,1.508174560546875,-0.19150018692016602,-0.13228639960289001,0.0768609568476677
1760107151903239700,1.51823974609375,-0.19523154199123383,-0.14073847234249115,0.07371150702238083
1760107151913305900,1.528305908203125,-0.1867336630821228,-0.15055514872074127,0.08647444099187851
1760107151923370500,1.53837060546875,-0.16607952117919922,-0.14732074737548828,0.09680750221014023
1760107151933436700,1.548436767578125,-0.15058603882789612,-0.15451207756996155,0.0817960649728775
1760107151943501800,1.558501708984375,-0.14821024239063263,-0.16902577877044678,0.03015550598502159
1760107151953567700,1.568567626953125,-0.16171592473983765,-0.19424325227737427,-0.051897019147872925
1760107151963632600,1.578632568359375,-0.18577812612056732,-0.21064378321170807,-0.15832732617855072
1760107151973698600,1.588698486328125,-0.21658717095851898,-0.22391246259212494,-0.2940579950809479
1760107151983763700,1.598763671875,-0.24062778055667877,-0.24552667140960693,-0.4441196620464325
1760107151993829600,1.60882958984375,-0.2532415986061096,-0.24994511902332306,-0.586987316608429
1760107152003894500,1.61889453125,-0.24697783589363098,-0.19165411591529846,-0.6973018646240234
1760107152013960700,1.628960693359375,-0.22748295962810516,-0.08550851047039032,-0.7525312900543213
1760107152024025600,1.639025634765625,-0.1973831057548523,0.026019349694252014,-0.7522865533828735
1760107152034091800,1.649091796875,-0.15741784870624542,0.08020243048667908,-0.6959431171417236
1760107152044156700,1.65915673828125,-0.1067781150341034,0.11110734939575195,-0.5745157599449158
1760107152054222600,1.66922265625,-0.052922338247299194,0.137422576546669,-0.3855721950531006
1760107152064287700,1.679287841796875,-0.008846222423017025,0.14229029417037964,-0.16022641956806183
1760107152074353700,1.689353759765625,0.011316304095089436,0.1273110806941986,0.05005331337451935
1760107152084418800,1.699418701171875,0.014360297471284866,0.10745935142040253,0.23230354487895966
1760107152094484500,1.709484375,0.014808506704866886,0.08366986364126205,0.3694201111793518
1760107152104549600,1.719549560546875,0.008096275851130486,0.04418157413601875,0.45365110039711
1760107152114615600,1.729615478515625,0.002620816696435213,0.0023438481148332357,0.48665380477905273
1760107152124680700,1.7396806640625,-0.00740225613117218,-0.031007716432213783,0.479534387588501
1760107152134747000,1.749746826171875,-0.025201760232448578,-0.05350370332598686,0.432461678981781
1760107152144811500,1.7598115234375,-0.03183010220527649,-0.08750934153795242,0.36539316177368164
1760107152154877700,1.769877685546875,-0.028537634760141373,-0.07969403266906738,0.3044278025627136
1760107152164942800,1.77994287109375,-0.02526700682938099,-0.029688119888305664,0.24759222567081451
1760107152175008800,1.7900087890625,-0.038476284593343735,0.002350239548832178,0.17801819741725922
1760107152185073700,1.80007373046875,-0.06036959961056709,0.009955162182450294,0.10280095040798187
1760107152195139300,1.810139404296875,-0.0894627720117569,0.0062973108142614365,0.027462517842650414
1760107152205204500,1.82020458984375,-0.12094239890575409,0.003824033075943589,-0.04237595200538635
1760107152215270400,1.8302705078125,-0.15199007093906403,0.002573412610217929,-0.09968557953834534
1760107152225335600,1.84033544921875,-0.1693807691335678,0.019781960174441338,-0.13197028636932373
1760107152235401700,1.850401611328125,-0.16231700778007507,0.052625395357608795,-0.13137640058994293
1760107152245466400,1.86046630859375,-0.1216883510351181,0.08481981605291367,-0.11385652422904968
1760107152255532500,1.870532470703125,-0.07314664870500565,0.09450706094503403,-0.0807821974158287
1760107152265597700,1.88059765625,-0.021755894646048546,0.078463114798069,-0.03844352811574936
1760107152275663600,1.89066357421875,0.02780073881149292,0.0748276337981224,0.003338272450491786
1760107152285728500,1.900728515625,0.06414783000946045,0.08361047506332397,0.0412377193570137
1760107152295794400,1.91079443359375,0.08733144402503967,0.09577179700136185,0.06121622025966644
1760107152305859600,1.920859619140625,0.1017167717218399,0.10559699684381485,0.06804749369621277
1760107152315925500,1.930925537109375,0.11701663583517075,0.12186145782470703,0.06660325825214386
1760107152325990400,1.940990478515625,0.1318773329257965,0.12757234275341034,0.06187295541167259
1760107152336056600,1.951056640625,0.1381797045469284,0.11196648329496384,0.06642483174800873
1760107152346121500,1.96112158203125,0.14370816946029663,0.09942618757486343,0.08505657315254211
1760107152356187600,1.971187744140625,0.13285179436206818,0.10115111619234085,0.11655057966709137
1760107152366252500,1.98125244140625,0.10178308933973312,0.12609374523162842,0.14250122010707855
1760107152376318500,1.991318359375,0.06273475289344788,0.15813611447811127,0.16960979998111725
1760107152386383600,2.001383544921875,0.04103798046708107,0.19868087768554688,0.18211041390895844
1760107152396449500,2.011449462890625,0.03501231223344803,0.21892622113227844,0.19258169829845428
1760107152406514400,2.021514404296875,0.05086025223135948,0.23157331347465515,0.1933090090751648
1760107152416579600,2.03157958984375,0.06598913669586182,0.22741717100143433,0.1826782077550888
1760107152426645500,2.0416455078125,0.09036984294652939,0.18781571090221405,0.16359372437000275
1760107152436710700,2.051710693359375,0.10459432005882263,0.15175171196460724,0.1385171264410019
1760107152446776600,2.061776611328125,0.11040160804986954,0.11627574265003204,0.11949869990348816
1760107152456842500,2.071842529296875,0.10259055346250534,0.08737245202064514,0.10508833825588226
1760107152466907400,2.081907470703125,0.08773517608642578,0.07434587180614471,0.10882927477359772
1760107152476972500,2.09197265625,0.0604550875723362,0.09308866411447525,0.11691915988922119
1760107152487038700,2.102038818359375,0.03572310879826546,0.0880369171500206,0.12288970500230789
1760107152497103400,2.112103271484375,0.010661965236067772,0.05826277285814285,0.1292509287595749
1760107152507169500,2.12216943359375,0.013614878058433533,0.04146568477153778,0.1354483664035797
1760107152517234700,2.132234619140625,0.029383987188339233,0.03395557031035423,0.1437145620584488
1760107152527300600,2.142300537109375,0.045286521315574646,0.030304376035928726,0.14610740542411804
1760107152537365500,2.152365478515625,0.055397212505340576,0.03784564882516861,0.14290255308151245
1760107152547431400,2.162431396484375,0.05770350992679596,0.0488053560256958,0.12438347190618515
1760107152557496600,2.17249658203125,0.06018663942813873,0.07292933762073517,0.098953478038311
1760107152567562500,2.1825625,0.07915926724672318,0.12443912774324417,0.09209690243005753
1760107152577627400,2.19262744140625,0.10510697960853577,0.1936509609222412,0.11807683855295181
1760107152587693600,2.202693603515625,0.1313106119632721,0.23818141222000122,0.15916994214057922
1760107152597758500,2.212758544921875,0.16190874576568604,0.2625296115875244,0.21344144642353058
1760107152607824600,2.22282470703125,0.2020830661058426,0.27023839950561523,0.2582922577857971
1760107152617889300,2.23288916015625,0.2424272894859314,0.24840953946113586,0.29078683257102966
1760107152627955500,2.24295556640625,0.27064162492752075,0.2208476960659027,0.3025936782360077
1760107152638020600,2.2530205078125,0.2727857232093811,0.19769656658172607,0.2946111261844635
1760107152648086500,2.26308642578125,0.24498765170574188,0.18897151947021484,0.25642138719558716
1760107152658151700,2.273151611328125,0.20646582543849945,0.18811798095703125,0.19142109155654907
1760107152668217300,2.28321728515625,0.17743870615959167,0.16967159509658813,0.11985263228416443
1760107152678282500,2.293282470703125,0.1721573770046234,0.13986708223819733,0.04691344499588013
1760107152688348400,2.303348388671875,0.18649078905582428,0.108059361577034,-0.013542174361646175
1760107152698413600,2.31341357421875,0.21637943387031555,0.10933235287666321,-0.058933623135089874
1760107152708479500,2.3234794921875,0.24955949187278748,0.13578206300735474,-0.09413182735443115
1760107152718544400,2.33354443359375,0.290202796459198,0.1537080705165863,-0.11082185804843903
1760107152728610600,2.343610595703125,0.3254782259464264,0.1215762346982956,-0.1292826235294342
1760107152738675700,2.35367578125,0.3436114192008972,0.05560201033949852,-0.14018987119197845
1760107152748741600,2.36374169921875,0.3305611312389374,0.03045404516160488,-0.12634782493114471
1760107152758806500,2.373806640625,0.30647045373916626,0.08743690699338913,-0.08530664443969727
1760107152768872400,2.38387255859375,0.288632869720459,0.18093276023864746,-0.01894812472164631
1760107152778937600,2.3939375,0.2865295112133026,0.25250521302223206,0.050212837755680084
1760107152789003500,2.40400341796875,0.2885713577270508,0.27069833874702454,0.09495474398136139
1760107152799068400,2.414068359375,0.3048318028450012,0.25128841400146484,0.10674988478422165
1760107152809134600,2.424134521484375,0.3287786841392517,0.18325024843215942,0.09762482345104218
1760107152819199500,2.434199462890625,0.34878674149513245,0.10764177143573761,0.07178071141242981
1760107152829265700,2.444265625,0.3583160638809204,0.058991946280002594,0.03621739149093628
1760107152839330600,2.45433056640625,0.345045268535614,0.05191859230399132,-0.005665875039994717
1760107152849396500,2.464396484375,0.3183406889438629,0.06018104776740074,-0.055327702313661575
1760107152859461600,2.474461669921875,0.2761325240135193,0.022166023030877113,-0.11619531363248825
1760107152869527600,2.484527587890625,0.23972924053668976,-0.03069799207150936,-0.1729629933834076
1760107152879592400,2.494592529296875,0.223012313246727,-0.0655055046081543,-0.2127801775932312
1760107152889658400,2.504658447265625,0.24143259227275848,-0.0738140344619751,-0.23281992971897125
1760107152899723500,2.5147236328125,0.2822282314300537,-0.05698259174823761,-0.2416296750307083
1760107152909789400,2.52478955078125,0.32250186800956726,-0.039920784533023834,-0.23687300086021423
1760107152919854300,2.534854248046875,0.3483981788158417,-0.02652907930314541,-0.2202271819114685
1760107152929920500,2.54492041015625,0.3538323640823364,-0.004847751930356026,-0.18657360970973969
1760107152939985400,2.5549853515625,0.3246350586414337,0.02040194347500801,-0.1477590948343277
1760107152950051600,2.565051513671875,0.28801581263542175,0.030104372650384903,-0.11027271300554276
1760107152960116700,2.57511669921875,0.26443564891815186,0.0212970320135355,-0.07702634483575821
1760107152970182400,2.585182373046875,0.25732341408729553,0.021759623661637306,-0.04803117364645004
1760107152980247600,2.59524755859375,0.24973154067993164,0.03869040310382843,-0.029223132878541946
1760107152990313500,2.6053134765625,0.2437538057565689,0.06686504930257797,-0.028193287551403046
1760107153000378600,2.615378662109375,0.21973475813865662,0.09096132963895798,-0.044974133372306824
1760107153010444300,2.6254443359375,0.20435313880443573,0.11545335501432419,-0.06731485575437546
1760107153020509400,2.635509521484375,0.18486732244491577,0.152443066239357,-0.08180884271860123
1760107153030575600,2.64557568359375,0.1656171977519989,0.18041931092739105,-0.08639640361070633
1760107153040640500,2.655640625,0.14743579924106598,0.18135887384414673,-0.07870892435312271
1760107153050706700,2.665706787109375,0.13617993891239166,0.16503210365772247,-0.05758552998304367
1760107153060771600,2.675771484375,0.1329042613506317,0.11841133236885071,-0.026823624968528748
1760107153070837500,2.68583740234375,0.13309919834136963,0.05766382813453674,0.018365690484642982
1760107153080902700,2.695902587890625,0.12569987773895264,-0.013019395060837269,0.06819423288106918
1760107153090968600,2.705968505859375,0.11824754625558853,-0.08136116713285446,0.11785819381475449
1760107153101033500,2.716033447265625,0.09630203247070312,-0.1441451907157898,0.15103958547115326
1760107153111098600,2.7260986328125,0.05549654737114906,-0.18525508046150208,0.17601870000362396
1760107153121164500,2.73616455078125,0.016643691807985306,-0.19309169054031372,0.19718870520591736
1760107153131229400,2.7462294921875,-0.005733519326895475,-0.1729973405599594,0.2136198729276657
1760107153141295400,2.75629541015625,-0.010217750445008278,-0.11294412612915039,0.21983063220977783
1760107153151361500,2.766361572265625,0.0024074974935501814,-0.061166416853666306,0.20316936075687408
1760107153161426400,2.776426513671875,0.016498282551765442,-0.06536862254142761,0.1647639125585556
1760107153171491600,2.78649169921875,0.01936890371143818,-0.10638768970966339,0.10926417261362076
1760107153181557500,2.7965576171875,0.00026365293888375163,-0.1593417227268219,0.058811116963624954
1760107153191622100,2.8066220703125,-0.02383609116077423,-0.21159560978412628,0.02943005971610546
1760107153201688000,2.81668798828125,-0.05847449600696564,-0.21422068774700165,0.03015230968594551
1760107153211753200,2.826753173828125,-0.09516379982233047,-0.18556906282901764,0.07227286696434021
1760107153221819100,2.836819091796875,-0.11550688743591309,-0.11807870119810104,0.14732687175273895
1760107153231884300,2.84688427734375,-0.1147148609161377,-0.031018102541565895,0.24480043351650238
1760107153241950000,2.856949951171875,-0.10397513210773468,0.035658396780490875,0.3362632393836975
1760107153252015000,2.86701513671875,-0.08654234558343887,0.04977048560976982,0.41216278076171875
1760107153262081000,2.8770810546875,-0.06618940830230713,0.015006380155682564,0.47980043292045593
1760107153272146200,2.887146240234375,-0.03738092631101608,-0.021250426769256592,0.5474926233291626
1760107153282212400,2.89721240234375,-0.016562731936573982,-0.06832366436719894,0.6046726107597351
1760107153292277000,2.907277099609375,0.003534813644364476,-0.13468751311302185,0.6510366201400757
1760107153302343200,2.91734326171875,0.023270968347787857,-0.17531323432922363,0.6646341681480408
1760107153312408300,2.927408203125,0.04875022917985916,-0.1738242506980896,0.6355306506156921
1760107153322474200,2.93747412109375,0.0721205323934555,-0.14291641116142273,0.5477080941200256
1760107153332539100,2.9475390625,0.0670165866613388,-0.10928893834352493,0.39782434701919556
1760107153342605000,2.95760498046875,0.01444125734269619,-0.09464634954929352,0.1884695142507553
1760107153352670200,2.967670166015625,-0.07316263020038605,-0.06214912608265877,-0.04604925215244293
1760107153362736000,2.977736083984375,-0.17691326141357422,-0.03867975249886513,-0.26733049750328064
1760107153372801000,2.987801025390625,-0.2796838581562042,-0.04665219038724899,-0.42802324891090393
1760107153382867200,2.9978671875,-0.37669479846954346,-0.044003676623106,-0.5289402604103088
1760107153392932000,3.00793212890625,-0.4591287076473236,-0.036138564348220825,-0.587198793888092
1760107153402998300,3.017998291015625,-0.5021587014198303,-0.04454030469059944,-0.6159572005271912
1760107153413063200,3.028063232421875,-0.4828295111656189,-0.04984079301357269,-0.6087251305580139
1760107153423129000,3.038129150390625,-0.4103534519672394,-0.04147154465317726,-0.5543859601020813
1760107153433194200,3.0481943359375,-0.31592947244644165,-0.0315142497420311,-0.4513072669506073
1760107153443260200,3.05826025390625,-0.23192031681537628,-0.0223844014108181,-0.3105027377605438
1760107153453325000,3.068324951171875,-0.14709411561489105,-0.0060203419998288155,-0.1512715369462967
1760107153463391000,3.078390869140625,-0.05536791682243347,0.014688931405544281,0.03133475407958031
1760107153473456000,3.0884560546875,0.028353877365589142,0.03133874759078026,0.21342119574546814
1760107153483522300,3.098522216796875,0.07817629724740982,0.04290831834077835,0.37469398975372314
1760107153493587200,3.108587158203125,0.07862876355648041,0.06401892751455307,0.4844156801700592
1760107153503653000,3.118653076171875,0.060200221836566925,0.07034393399953842,0.5098224878311157
1760107153513718000,3.128718017578125,0.03825364634394646,0.03369511291384697,0.45348653197288513
1760107153523784200,3.1387841796875,0.013305152766406536,-0.037454430013895035,0.3209388852119446
1760107153533849300,3.148849365234375,-0.017343835905194283,-0.1445920765399933,0.1342345029115677
1760107153543915000,3.1589150390625,-0.06142474338412285,-0.27341049909591675,-0.08079231530427933
1760107153553980200,3.168980224609375,-0.09646981209516525,-0.37122467160224915,-0.2734789550304413
1760107153564046000,3.179046142578125,-0.11133158206939697,-0.36286741495132446,-0.40340790152549744
1760107153574111200,3.189111328125,-0.10873740166425705,-0.2604787349700928,-0.4552154541015625
1760107153584177200,3.19917724609375,-0.10917602479457855,-0.13249891996383667,-0.4333021640777588
1760107153594242000,3.209241943359375,-0.11862092465162277,0.0032024511601775885,-0.3605390191078186
1760107153604307200,3.21930712890625,-0.13653147220611572,0.12495151907205582,-0.25119760632514954
1760107153614373000,3.229373046875,-0.1465526819229126,0.22058910131454468,-0.13718555867671967
1760107153624438000,3.23943798828125,-0.1588250696659088,0.2706751823425293,-0.04735872521996498
1760107153634504200,3.249504150390625,-0.16861803829669952,0.2537073791027069,0.00697907991707325
1760107153644569000,3.259569091796875,-0.17196829617023468,0.20504343509674072,0.019842680543661118
1760107153654635300,3.26963525390625,-0.15106062591075897,0.14840225875377655,-0.0065559037029743195
1760107153664700000,3.279699951171875,-0.10910571366548538,0.09485647082328796,-0.05315563082695007
1760107153674766000,3.28976611328125,-0.052322592586278915,0.03742540255188942,-0.10653389990329742
1760107153684831200,3.299831298828125,0.004564924165606499,-0.005215534474700689,-0.1402769535779953
1760107153694897200,3.309897216796875,0.04633340984582901,-0.037467215210199356,-0.14239628612995148
1760107153704962300,3.31996240234375,0.05926412343978882,-0.07507477700710297,-0.1020272970199585
1760107153715028000,3.330028076171875,0.04171229153871536,-0.09183058887720108,-0.02629019320011139
1760107153725093000,3.340093017578125,-0.0002181128947995603,-0.07626867294311523,0.04932653531432152
1760107153735159000,3.350158935546875,-0.04818510636687279,-0.04051067307591438,0.10639861226081848
1760107153745224200,3.36022412109375,-0.09434673935174942,-0.002900981344282627,0.12783971428871155
1760107153755290000,3.3702900390625,-0.12929967045783997,0.01655261218547821,0.11036112904548645
1760107153765355000,3.38035498046875,-0.14529621601104736,0.021876536309719086,0.06059597060084343
1760107153775421200,3.390421142578125,-0.13567207753658295,0.013281450606882572,0.011033476330339909
1760107153785486300,3.400486328125,-0.10620713233947754,0.004358795937150717,-0.027769844979047775
1760107153795552300,3.41055224609375,-0.07202625274658203,0.004501541145145893,-0.046312104910612106
1760107153805617200,3.4206171875,-0.03904247283935547,-0.0015723302494734526,-0.03999881446361542
1760107153815683000,3.43068310546875,-0.011816179379820824,0.011405253782868385,-0.0033712955191731453
1760107153825748200,3.440748291015625,0.01050270814448595,0.05973443761467934,0.05212551727890968
1760107153835814100,3.450814208984375,0.01587963104248047,0.12921710312366486,0.11931361258029938
1760107153845879000,3.460879150390625,0.015175490640103817,0.17232462763786316,0.17962035536766052
1760107153855945200,3.4709453125,0.011564777232706547,0.18169470131397247,0.2282179892063141
1760107153866010000,3.481010009765625,0.01062148530036211,0.15599173307418823,0.2548392117023468
1760107153876076300,3.491076171875,0.012740829028189182,0.08375508338212967,0.2581567168235779
1760107153886141200,3.50114111328125,0.03387967124581337,0.006647782865911722,0.2526428997516632
1760107153896207000,3.51120703125,0.07998138666152954,-0.0232376791536808,0.27675995230674744
1760107153906272300,3.521272216796875,0.13131487369537354,-0.01242124941200018,0.325430303812027
1760107153916338200,3.531338134765625,0.1828012466430664,0.004764395300298929,0.3941513001918793
1760107153926403000,3.541403076171875,0.21514080464839935,0.02279479429125786,0.4476827085018158
1760107153936469000,3.551468994140625,0.22570796310901642,0.068086639046669,0.4798089563846588
1760107153946534100,3.5615341796875,0.22949683666229248,0.15633420646190643,0.4989333748817444
1760107153956600000,3.57160009765625,0.21910251677036285,0.24795708060264587,0.4892660975456238
1760107153966665000,3.5816650390625,0.21627292037010193,0.3335084617137909,0.4500878155231476
1760107153976731100,3.591731201171875,0.22463683784008026,0.4109169542789459,0.3819502890110016
1760107153986796000,3.601796142578125,0.2645275294780731,0.4069797396659851,0.2907247841358185
1760107153996861200,3.611861083984375,0.3066052198410034,0.31731030344963074,0.18099401891231537
1760107154006927400,3.62192724609375,0.32133567333221436,0.17404183745384216,0.044430047273635864
1760107154016992000,3.631991943359375,0.3090483844280243,0.050748929381370544,-0.09624823927879333
1760107154027058200,3.64205810546875,0.2744448781013489,-0.02376764640212059,-0.23501704633235931
1760107154037123300,3.652123291015625,0.24214845895767212,-0.028924858197569847,-0.34614408016204834
1760107154047189200,3.662189208984375,0.23456190526485443,0.02593386173248291,-0.3964802324771881
1760107154057254100,3.672254150390625,0.24598340690135956,0.11592154204845428,-0.36972078680992126
1760107154067320000,3.682320068359375,0.25403812527656555,0.1981692761182785,-0.2781517207622528
1760107154077385200,3.69238525390625,0.23252059519290924,0.2559540271759033,-0.17525596916675568
1760107154087451100,3.702451171875,0.19141097366809845,0.2858099043369293,-0.08882654458284378
1760107154097516000,3.71251611328125,0.16027915477752686,0.2806077003479004,-0.027230022475123405
1760107154107582200,3.722582275390625,0.1642584502696991,0.2649190127849579,0.023549001663923264
1760107154117647000,3.732647216796875,0.194919154047966,0.2676689922809601,0.05710962414741516
1760107154127713300,3.74271337890625,0.23922589421272278,0.2848575711250305,0.06968960165977478
1760107154137778000,3.75277783203125,0.30059605836868286,0.25740811228752136,0.07030931860208511
1760107154147844000,3.762843994140625,0.3669218122959137,0.17868904769420624,0.06673535704612732
1760107154157909200,3.7729091796875,0.4126879572868347,0.08035209774971008,0.06945284456014633
1760107154167975200,3.78297509765625,0.4318946897983551,-0.016266321763396263,0.07962451875209808
1760107154178040000,3.7930400390625,0.41726061701774597,-0.10311546921730042,0.08204054087400436
1760107154188106000,3.80310595703125,0.36459606885910034,-0.15218660235404968,0.06579126417636871
1760107154198171000,3.8131708984375,0.29312267899513245,-0.16280995309352875,0.01107555441558361
1760107154208237000,3.823237060546875,0.22104929387569427,-0.12861762940883636,-0.06722883880138397
1760107154218302000,3.833302001953125,0.16964256763458252,-0.06552228331565857,-0.16176865994930267
1760107154228368100,3.8433681640625,0.1472264677286148,-0.01787034422159195,-0.2454555630683899
1760107154238433000,3.85343310546875,0.14907416701316833,0.004602741450071335,-0.3033694624900818
1760107154248499000,3.8634990234375,0.17164473235607147,0.0007422229973599315,-0.32882794737815857
1760107154258564000,3.873564208984375,0.20433849096298218,-0.018086325377225876,-0.3128838837146759
1760107154268630000,3.883630126953125,0.2503992021083832,-0.0391540601849556,-0.2604358494281769
1760107154278695200,3.893695068359375,0.2818031907081604,-0.042818836867809296,-0.1856742650270462
1760107154288760800,3.9037607421875,0.2786302864551544,-0.03674496337771416,-0.1096721664071083
1760107154298826000,3.913825927734375,0.2453591525554657,-0.01930711790919304,-0.04784928262233734
1760107154308891100,3.92389111328125,0.1939348578453064,-0.0006886934279464185,-0.015730759128928185
1760107154318957000,3.93395703125,0.1397392600774765,0.004936701618134975,-0.01679655723273754
1760107154329022000,3.94402197265625,0.11236356198787689,0.015036740340292454,-0.023311180993914604
1760107154339088000,3.954087890625,0.10644575208425522,0.04499490559101105,-0.04324867203831673
1760107154349153000,3.964153076171875,0.10475437343120575,0.08045729249715805,-0.060332849621772766
1760107154359219200,3.97421923828125,0.1105683222413063,0.0976858139038086,-0.08087700605392456
1760107154369283800,3.984283935546875,0.12478107959032059,0.09048888832330704,-0.1064140573143959
1760107154379350000,3.99435009765625,0.14981506764888763,0.0655616968870163,-0.1226702556014061
1760107154389415000,4.004414794921875,0.16796663403511047,0.04073464497923851,-0.11505574733018875
1760107154399481000,4.014481201171875,0.18447449803352356,0.029704898595809937,-0.07698612660169601
1760107154409546000,4.0245458984375,0.1756109744310379,0.03218403458595276,-0.015517440624535084
1760107154419612000,4.03461181640625,0.13816480338573456,0.04045741260051727,0.05619562789797783
1760107154429677000,4.044677001953125,0.0806405171751976,0.04405880346894264,0.11352016776800156
1760107154439743000,4.054742919921875,0.02732403203845024,0.025078721344470978,0.15136662125587463
1760107154449808100,4.06480810546875,-0.008284028619527817,-0.008607336319983006,0.15663887560367584
1760107154459873800,4.074873779296875,-0.01624847762286663,-0.035287950187921524,0.14149267971515656
1760107154469939000,4.08493896484375,-0.00885074958205223,-0.05565048009157181,0.10643163323402405
1760107154480005000,4.095005126953125,0.001508414396084845,-0.07556000351905823,0.0638657957315445
1760107154490070000,4.105070068359375,0.00008974852971732616,-0.08059684187173843,0.014958975836634636
1760107154500136000,4.115135986328125,0.00024474450037814677,-0.106360524892807,-0.03236912563443184
1760107154510201000,4.125201171875,-0.0023965786676853895,-0.12938354909420013,-0.06036800146102905
1760107154520267000,4.13526708984375,-0.014147777110338211,-0.15340712666511536,-0.05308159440755844
1760107154530332200,4.145332275390625,-0.04098045453429222,-0.17321732640266418,-0.02857918106019497
1760107154540398000,4.155398193359375,-0.06671245396137238,-0.174166738986969,0.018608305603265762
1760107154550463000,4.165462890625,-0.08326825499534607,-0.16597245633602142,0.06312011182308197
1760107154560529000,4.17552880859375,-0.09084521979093552,-0.1596812754869461,0.10447687655687332
1760107154570594000,4.185593994140625,-0.10972223430871964,-0.14804406464099884,0.13101394474506378
1760107154580659000,4.195658935546875,-0.13773202896118164,-0.11897139251232147,0.14922596514225006
1760107154590724900,4.205724853515625,-0.15350620448589325,-0.08886276185512543,0.14892956614494324
1760107154600790000,4.2157900390625,-0.1582745909690857,-0.08267144113779068,0.14449194073677063
1760107154610856000,4.22585595703125,-0.1406971961259842,-0.1213890090584755,0.14100852608680725
1760107154620920800,4.2359208984375,-0.08496655523777008,-0.19250819087028503,0.1511777937412262
1760107154630987000,4.245987060546875,-0.015839150175452232,-0.25759053230285645,0.1695791780948639
1760107154641052000,4.256052001953125,0.03923342376947403,-0.29556214809417725,0.19276918470859528
1760107154651118000,4.2661181640625,0.06672336906194687,-0.30300673842430115,0.1998601108789444
1760107154661183200,4.276183349609375,0.057443320751190186,-0.29734620451927185,0.17421947419643402
1760107154671249000,4.286248779296875,0.015339541248977184,-0.2835923135280609,0.10960851609706879
1760107154681314000,4.29631396484375,-0.04597468301653862,-0.2468332201242447,0.002133458387106657
1760107154691380000,4.3063798828125,-0.12329636514186859,-0.2013389766216278,-0.16231752932071686
1760107154701445000,4.316445068359375,-0.20258426666259766,-0.12437361478805542,-0.3650144636631012
1760107154711510800,4.3265107421875,-0.26074716448783875,-0.004595817066729069,-0.5849963426589966
1760107154721576000,4.336575927734375,-0.27306827902793884,0.10447101294994354,-0.7888110280036926
1760107154731642000,4.34664208984375,-0.23412807285785675,0.19603422284126282,-0.9150163531303406
1760107154741707000,4.35670703125,-0.16460545361042023,0.24572907388210297,-0.949658989906311
1760107154751773200,4.366773193359375,-0.07675310224294662,0.2780348062515259,-0.8696901202201843
1760107154761838000,4.376838134765625,0.020838435739278793,0.30927395820617676,-0.6837388873100281
1760107154771904000,4.386904052734375,0.1059541329741478,0.32195886969566345,-0.4235541820526123
1760107154781969200,4.39696923828125,0.1642371416091919,0.30954694747924805,-0.14979241788387299
1760107154792035000,4.40703515625,0.18104702234268188,0.27133724093437195,0.09280503541231155
1760107154802100000,4.417099853515625,0.175680473446846,0.22508850693702698,0.2592417001724243
1760107154812166000,4.427165771484375,0.17745281755924225,0.16438227891921997,0.3431629538536072
1760107154822231000,4.43723095703125,0.19196757674217224,0.10856269299983978,0.3577378988265991
1760107154832297000,4.447296875,0.22068656980991364,0.06618008762598038,0.3236827254295349
1760107154842361900,4.45736181640625,0.270474374294281,0.04598746448755264,0.25378912687301636
1760107154852427000,4.467427001953125,0.32631659507751465,0.03457874804735184,0.16918715834617615
1760107154862493000,4.477492919921875,0.36904221773147583,0.02491387166082859,0.07583590596914291
1760107154872558000,4.48755810546875,0.37715527415275574,-0.00015046859334688634,-0.02064589038491249
1760107154882624000,4.4976240234375,0.3510022461414337,-0.03959827497601509,-0.10833153128623962
1760107154892689000,4.50768896484375,0.2976183593273163,-0.06178667023777962,-0.17193634808063507
1760107154902755000,4.517755126953125,0.23081031441688538,-0.05270795151591301,-0.1965727061033249
1760107154912820200,4.5278203125,0.15369422733783722,0.03572364151477814,-0.19436015188694
1760107154922886000,4.537885986328125,0.09254191815853119,0.16393540799617767,-0.18025419116020203
1760107154932951000,4.547950927734375,0.06662962585687637,0.2656165063381195,-0.17259573936462402
1760107154943017000,4.558016845703125,0.08194839209318161,0.3277166187763214,-0.1710393875837326
1760107154953082000,4.56808203125,0.11293507367372513,0.34801921248435974,-0.16759592294692993
1760107154963148000,4.57814794921875,0.13883191347122192,0.3256121873855591,-0.1605747640132904
1760107154973213000,4.588212890625,0.1532827615737915,0.2816234230995178,-0.141721710562706
1760107154983279000,4.598279052734375,0.1599063128232956,0.23108620941638947,-0.10621645301580429
1760107154993344000,4.608343994140625,0.16305123269557953,0.17189426720142365,-0.06907840073108673
1760107155003410200,4.61841015625,0.15972600877285004,0.13737942278385162,-0.02220170944929123
1760107155013474800,4.628474853515625,0.15692409873008728,0.14135153591632843,0.0236416794359684
1760107155023541000,4.638541015625,0.15070082247257233,0.1688569337129593,0.059670254588127136
1760107155033606100,4.648606201171875,0.14086976647377014,0.19842228293418884,0.07908656448125839
1760107155043672000,4.658672119140625,0.12641333043575287,0.21771875023841858,0.08090124279260635
1760107155053737000,4.668737060546875,0.12004677951335907,0.22653460502624512,0.07132264971733093
1760107155063803000,4.678802978515625,0.11761478334665298,0.23159541189670563,0.05979622155427933
1760107155073868000,4.688867919921875,0.11809814721345901,0.19913093745708466,0.042940810322761536
1760107155083934000,4.698933837890625,0.10639355331659317,0.14655429124832153,0.023851536214351654
1760107155093998800,4.708998779296875,0.09826398640871048,0.09689858555793762,0.01854039542376995
1760107155104064000,4.71906396484375,0.08430156111717224,0.05790937319397926,0.029807429760694504
1760107155114130000,4.7291298828125,0.07842077314853668,0.040651556104421616,0.056232113391160965
1760107155124195000,4.739195068359375,0.07828947901725769,0.05294284224510193,0.0927850678563118
1760107155134261200,4.74926123046875,0.08101122826337814,0.10704629123210907,0.12189554423093796
1760107155144326000,4.759325927734375,0.0852842703461647,0.1602434664964676,0.131353497505188
1760107155154392000,4.76939208984375,0.08469997346401215,0.18078894913196564,0.11822144687175751
1760107155164457000,4.77945703125,0.10124166309833527,0.174576073884964,0.1080218106508255
1760107155174523100,4.789523193359375,0.1222958192229271,0.162546306848526,0.11239685118198395
1760107155184588500,4.799588623046875,0.13042804598808289,0.1282740831375122,0.12468014657497406
1760107155194654500,4.809654541015625,0.1344614028930664,0.0963747426867485,0.14495213329792023
1760107155204719600,4.8197197265625,0.14416436851024628,0.07937764376401901,0.1670835316181183
1760107155214785500,4.82978564453125,0.15185290575027466,0.0862848237156868,0.1848020702600479
1760107155224850400,4.839850341796875,0.15827539563179016,0.0932985246181488,0.17729994654655457
1760107155234916400,4.849916259765625,0.17078186571598053,0.11361045390367508,0.16625608503818512
1760107155244981500,4.8599814453125,0.1981402486562729,0.11551833897829056,0.16319318115711212
1760107155255047700,4.870047607421875,0.229886993765831,0.1090678945183754,0.16981513798236847
1760107155265112300,4.8801123046875,0.25544267892837524,0.0736803486943245,0.19543075561523438
1760107155275178500,4.890178466796875,0.28416675329208374,0.022537000477313995,0.23483487963676453
1760107155285243400,4.900243408203125,0.3101986050605774,0.007458981592208147,0.28009796142578125
1760107155295309600,4.9103095703125,0.32497942447662354,0.06506342440843582,0.3184754550457001
1760107155305374700,4.920374755859375,0.3363969326019287,0.14789599180221558,0.3425445556640625
1760107155315439400,4.930439453125,0.33797430992126465,0.22020800411701202,0.34324896335601807
1760107155325505500,4.940505615234375,0.3393056392669678,0.2850823402404785,0.3145619332790375
1760107155335570700,4.95057080078125,0.3589392602443695,0.3177843689918518,0.2609413266181946
1760107155345636600,4.96063671875,0.3904569745063782,0.2787988781929016,0.18954196572303772
1760107155355701500,4.970701416015625,0.4351791739463806,0.18037642538547516,0.0891469195485115
1760107155365767400,4.980767333984375,0.44700387120246887,0.05841270834207535,-0.024267256259918213
1760107155375832600,4.99083251953125,0.44306105375289917,-0.01990952529013157,-0.138637512922287
1760107155385898500,5.0008984375,0.4221310019493103,-0.05980980396270752,-0.24428750574588776
1760107155395963400,5.01096337890625,0.4073725640773773,-0.03668397665023804,-0.32784977555274963
1760107155406029600,5.021029541015625,0.39248576760292053,0.03490658476948738,-0.37830549478530884
1760107155416094500,5.031094482421875,0.36869892477989197,0.1337367594242096,-0.3910074532032013
1760107155426160600,5.04116064453125,0.34210699796676636,0.2569202184677124,-0.36643844842910767
1760107155436225500,5.0512255859375,0.32186830043792725,0.3951933979988098,-0.29466837644577026
1760107155446291500,5.06129150390625,0.3239429295063019,0.5184767246246338,-0.19299235939979553
1760107155456356600,5.071356689453125,0.335448294878006,0.6033708453178406,-0.08311831951141357
1760107155466422500,5.081422607421875,0.3738425672054291,0.6204456686973572,0.017173927277326584
1760107155476487400,5.0914873046875,0.4177738130092621,0.5710528492927551,0.09690124541521072
1760107155486553300,5.10155322265625,0.44533804059028625,0.44351378083229065,0.14602431654930115
1760107155496618500,5.111618408203125,0.431977778673172,0.27278465032577515,0.14911997318267822
1760107155506684400,5.121684326171875,0.37729722261428833,0.1119888499379158,0.10631898045539856
1760107155516749600,5.13174951171875,0.3086763322353363,0.016170714050531387,0.05432182922959328
1760107155526814500,5.141814453125,0.24088798463344574,-0.009865946136415005,0.011422297917306423
1760107155536880400,5.15188037109375,0.1904812604188919,0.03154274448752403,-0.01751241460442543
1760107155546945500,5.161945556640625,0.15928232669830322,0.11236169189214706,-0.045274004340171814
1760107155557011700,5.17201171875,0.15064756572246552,0.17076535522937775,-0.07220815122127533
1760107155567076400,5.182076416015625,0.15529398620128632,0.17635665833950043,-0.11468902975320816
1760107155577142500,5.192142578125,0.16876505315303802,0.11951307952404022,-0.18007735908031464
1760107155587207700,5.202207763671875,0.1748969852924347,0.03206206113100052,-0.25170865654945374
1760107155597273600,5.212273681640625,0.19015289843082428,-0.04537946730852127,-0.3117634952068329
1760107155607338500,5.22233837890625,0.20754998922348022,-0.0696195587515831,-0.3349343240261078
1760107155617404400,5.232404296875,0.21824978291988373,-0.06614226847887039,-0.3098955452442169
1760107155627469600,5.242469482421875,0.21544334292411804,-0.03844752535223961,-0.23137809336185455
1760107155637535500,5.252535400390625,0.21169866621494293,0.02045653946697712,-0.11583738774061203
1760107155647600400,5.262600341796875,0.21082249283790588,0.10347845405340195,0.01062175165861845
1760107155657666600,5.27266650390625,0.22111959755420685,0.1462528109550476,0.09985096007585526
1760107155667731500,5.2827314453125,0.23726901412010193,0.1357748806476593,0.13492825627326965
1760107155677797600,5.292797607421875,0.247015118598938,0.08702997118234634,0.11665763705968857
1760107155687862300,5.3028623046875,0.23260341584682465,0.032104939222335815,0.06655292958021164
1760107155697928400,5.312928466796875,0.20122019946575165,0.008727977983653545,0.01906636916100979
1760107155707993600,5.32299365234375,0.162099689245224,0.011743474751710892,-0.034324418753385544
1760107155718059500,5.3330595703125,0.14556331932544708,0.03254755586385727,-0.06832180172204971
1760107155728124700,5.343124755859375,0.16071458160877228,0.06511295586824417,-0.07671927660703659
1760107155738189600,5.353189453125,0.1950560361146927,0.10370269417762756,-0.06440296024084091
1760107155748255500,5.36325537109375,0.22089163959026337,0.10932675749063492,-0.020974257960915565
1760107155758320600,5.373320556640625,0.2095758616924286,0.0973244234919548,0.027169035747647285
1760107155768386600,5.383386474609375,0.17051687836647034,0.07337434589862823,0.06866694241762161
1760107155778451500,5.393451416015625,0.1208433285355568,0.048704955726861954,0.09433635324239731
1760107155788517400,5.403517333984375,0.09628073126077652,0.024745026603341103,0.10307631641626358
1760107155798582500,5.41358251953125,0.0800442323088646,0.011698734015226364,0.09581947326660156
1760107155808648700,5.423648681640625,0.0718904361128807,0.0036402747500687838,0.077061228454113
1760107155818713300,5.43371337890625,0.06862033903598785,-0.013763482682406902,0.056354619562625885
1760107155828779500,5.443779541015625,0.07194103300571442,-0.03027082048356533,0.036491166800260544
1760107155838844400,5.453844482421875,0.06652043759822845,-0.04104623571038246,0.017610685899853706
1760107155848910600,5.46391064453125,0.05276601016521454,-0.036307938396930695,0.009188704192638397
1760107155858975500,5.4739755859375,0.03753192722797394,-0.050691138952970505,0.0037116475868970156
1760107155869041400,5.48404150390625,0.018080200999975204,-0.09706476330757141,0.003421096596866846
1760107155879106600,5.4941064453125,0.004649613052606583,-0.16359612345695496,0.011324825696647167
1760107155889172500,5.50417236328125,0.0017449031583964825,-0.19749683141708374,0.009514409117400646
1760107155899237600,5.514237548828125,0.004446413833647966,-0.1955263614654541,0.0029140308033674955
1760107155909303600,5.524303466796875,-0.004316185135394335,-0.1591648906469345,-0.0018261295044794679
1760107155919368400,5.534368408203125,-0.04392697662115097,-0.08695141226053238,-0.010539992712438107
1760107155929434600,5.5444345703125,-0.08577189594507217,-0.015483885072171688,-0.009763148613274097
1760107155939499500,5.55449951171875,-0.10334183275699615,0.05235747992992401,0.015340340323746204
1760107155949564400,5.564564453125,-0.08597163110971451,0.09679019451141357,0.07877843827009201
1760107155959630600,5.574630615234375,-0.05257372930645943,0.0964711457490921,0.15637309849262238
1760107155969695500,5.584695556640625,-0.022060029208660126,0.03620434179902077,0.2209038883447647
1760107155979761700,5.59476171875,-0.0025486452504992485,-0.05410584434866905,0.26569852232933044
1760107155989826600,5.60482666015625,0.0031846079509705305,-0.1418181210756302,0.2826271653175354
1760107155999892500,5.614892578125,0.005626194179058075,-0.17960651218891144,0.27568989992141724
1760107156009957600,5.62495751953125,0.008771120570600033,-0.1653817743062973,0.24546967446804047
1760107156020023600,5.6350234375,0.017854364588856697,-0.13101661205291748,0.18607133626937866
1760107156030088400,5.64508837890625,0.01575978845357895,-0.15171335637569427,0.07160068303346634
1760107156040154400,5.655154296875,-0.020079169422388077,-0.20433342456817627,-0.11034195125102997
1760107156050219500,5.665219482421875,-0.08373324573040009,-0.22264665365219116,-0.34997132420539856
1760107156060285700,5.67528564453125,-0.1310243308544159,-0.18274584412574768,-0.6058454513549805
1760107156070350300,5.685350341796875,-0.1551818698644638,-0.06560937315225601,-0.8141626715660095
1760107156080416500,5.69541650390625,-0.15702717006206512,0.09080926328897476,-0.935682475566864
1760107156090481400,5.7054814453125,-0.1452176421880722,0.17088200151920319,-0.9561411142349243
1760107156100547600,5.715547607421875,-0.10394051671028137,0.18894729018211365,-0.8586854338645935
1760107156110612700,5.72561279296875,-0.040948498994112015,0.17935830354690552,-0.6561053991317749
1760107156120678400,5.735678466796875,0.02153591811656952,0.15907780826091766,-0.37520796060562134
1760107156130743600,5.74574365234375,0.06568580120801926,0.12739630043506622,-0.0642588809132576
1760107156140808700,5.75580859375,0.08223308622837067,0.09302874654531479,0.20951780676841736
1760107156150874600,5.76587451171875,0.0702962651848793,0.04896221682429314,0.39803045988082886
1760107156160939500,5.775939453125,0.0502365380525589,-0.0291147418320179,0.4778834879398346
1760107156171005400,5.78600537109375,0.03724457323551178,-0.1098327562212944,0.4538106322288513
1760107156181070600,5.796070556640625,0.04312323406338692,-0.164544478058815,0.3693234622478485
1760107156191136300,5.80613623046875,0.059791162610054016,-0.16975867748260498,0.26098525524139404
1760107156201201200,5.816201171875,0.07599463313817978,-0.14935512840747833,0.15140123665332794
1760107156211267300,5.826267333984375,0.09916014224290848,-0.11496386677026749,0.05829925835132599
1760107156221332200,5.836332275390625,0.1218862235546112,-0.07373733818531036,-0.004214984830468893
1760107156231398400,5.8463984375,0.13143685460090637,-0.045510757714509964,-0.057265687733888626
1760107156241463300,5.85646337890625,0.10881702601909637,-0.03702166676521301,-0.10099772363901138
1760107156251529200,5.866529296875,0.06827066838741302,-0.03736202046275139,-0.138730987906456
1760107156261594400,5.876594482421875,0.010747186839580536,-0.04428810253739357,-0.1730617880821228
1760107156271660300,5.886660400390625,-0.05569974705576897,-0.04456879943609238,-0.19387200474739075
1760107156281725400,5.896725341796875,-0.12232325226068497,-0.031858332455158234,-0.19538654386997223
1760107156291791000,5.906791015625,-0.16466058790683746,0.006075202953070402,-0.18058894574642181
1760107156301856300,5.916856201171875,-0.1768895536661148,0.05609336122870445,-0.15245690941810608
1760107156311921400,5.92692138671875,-0.16188398003578186,0.08619480580091476,-0.13124243915081024
1760107156321987300,5.9369873046875,-0.1257520616054535,0.10014737397432327,-0.12472116202116013
1760107156332052200,5.94705224609375,-0.0788428857922554,0.10187230259180069,-0.13026213645935059
1760107156342118100,5.9571181640625,-0.036490365862846375,0.1016019880771637,-0.14797641336917877
1760107156352183300,5.967183349609375,-0.014099307358264923,0.07936593145132065,-0.16036464273929596
1760107156362249500,5.97724951171875,-0.004591289907693863,0.056181248277425766,-0.1637343317270279
1760107156372314000,5.987314208984375,0.004923119675368071,0.040110666304826736,-0.15091069042682648
1760107156382380300,5.99738037109375,0.01932576112449169,0.012220180593430996,-0.12438160926103592
1760107156392445400,6.007445556640625,0.028746958822011948,-0.0030362699180841446,-0.08473672717809677
1760107156402511400,6.017511474609375,0.04387957230210304,0.004793690051883459,-0.03778839111328125
1760107156412576300,6.027576171875,0.05043627694249153,0.016050605103373528,0.011482219211757183
1760107156422642200,6.03764208984375,0.05022721737623215,0.024033963680267334,0.0458521768450737
1760107156432707300,6.047707275390625,0.05061816796660423,0.02617381326854229,0.07241960614919662
1760107156442773200,6.057773193359375,0.06267376989126205,0.031156321987509727,0.07821544259786606
1760107156452838400,6.06783837890625,0.07417702674865723,0.03734657168388367,0.08308050781488419
1760107156462904300,6.077904296875,0.0768127590417862,0.038778021931648254,0.08233801275491714
1760107156472969200,6.08796923828125,0.07965914160013199,0.03303331881761551,0.07900187373161316
1760107156483034400,6.098034423828125,0.08047699928283691,0.043229762464761734,0.08503872901201248
1760107156493100300,6.108100341796875,0.08144638687372208,0.06415767967700958,0.10500018298625946
1760107156503165200,6.118165283203125,0.07541486620903015,0.08766913414001465,0.13943219184875488
1760107156513231400,6.1282314453125,0.06441520899534225,0.1121680811047554,0.1856076717376709
1760107156523296300,6.138296142578125,0.051480233669281006,0.12183615565299988,0.23142044246196747
1760107156533362400,6.148362548828125,0.035526834428310394,0.11521314084529877,0.26270008087158203
1760107156543427300,6.15842724609375,0.015016499906778336,0.08095557242631912,0.25661739706993103
1760107156553493200,6.1684931640625,-0.005429386626929045,0.024321584030985832,0.21557968854904175
1760107156563558400,6.178558349609375,-0.013307815417647362,-0.019533753395080566,0.15276078879833221
1760107156573624300,6.188624267578125,-0.010881676338613033,-0.033614952117204666,0.08853945136070251
1760107156583689200,6.198689208984375,0.0018125474452972412,-0.02292795293033123,0.049249839037656784
1760107156593755100,6.208755126953125,0.02383236214518547,-0.008159925229847431,0.03586079552769661
1760107156603820300,6.2188203125,0.04729001596570015,-0.00869016069918871,0.06467406451702118
1760107156613886500,6.228886474609375,0.07075513154268265,0.00809361319988966,0.11108257621526718
1760107156623951000,6.238951171875,0.09058715403079987,0.009579123929142952,0.17355448007583618
1760107156634016300,6.249016357421875,0.10458100587129593,0.0036756948102265596,0.22692182660102844
1760107156644082400,6.25908251953125,0.09806478023529053,0.012954148463904858,0.24755918979644775
1760107156654147300,6.269147216796875,0.09051471948623657,0.045875612646341324,0.24102726578712463
1760107156664213500,6.279213623046875,0.0797470286488533,0.08061734586954117,0.21152263879776
1760107156674278100,6.289278076171875,0.07610835134983063,0.1028430238366127,0.16698606312274933
1760107156684344300,6.29934423828125,0.0881652757525444,0.11544350534677505,0.11508610844612122
1760107156694409500,6.309409423828125,0.11339659988880157,0.1325702965259552,0.055144477635622025
1760107156704475400,6.319475341796875,0.14979109168052673,0.13927507400512695,-0.01672385260462761
1760107156714540300,6.329540283203125,0.18772409856319427,0.11693806946277618,-0.10423905402421951
1760107156724606200,6.339606201171875,0.20861420035362244,0.06940224021673203,-0.18494029343128204
1760107156734671400,6.34967138671875,0.20447111129760742,0.05799885466694832,-0.25579634308815
1760107156744737300,6.3597373046875,0.1946118324995041,0.08674980700016022,-0.3141768276691437
1760107156754802200,6.36980224609375,0.18308113515377045,0.11780839413404465,-0.3568750321865082
1760107156764868400,6.379868408203125,0.1746082901954651,0.09819713979959488,-0.3898143470287323
1760107156774933200,6.389933349609375,0.1759806126356125,0.032641034573316574,-0.40459221601486206
1760107156784999400,6.39999951171875,0.179005429148674,-0.013425527140498161,-0.387896329164505
1760107156795064300,6.410064208984375,0.20838329195976257,0.0075572519563138485,-0.31863096356391907
1760107156805129200,6.420129150390625,0.25716522336006165,0.07197725772857666,-0.20169344544410706
1760107156815195400,6.4301953125,0.3032459020614624,0.18285024166107178,-0.046906523406505585
1760107156825260300,6.44026025390625,0.33691757917404175,0.2977379560470581,0.11101626604795456
1760107156835326200,6.450326171875,0.35962021350860596,0.34561678767204285,0.24113725125789642
1760107156845391400,6.460391357421875,0.36844727396965027,0.31711962819099426,0.3098936676979065
1760107156855457300,6.470457275390625,0.36437928676605225,0.21415436267852783,0.31120607256889343
1760107156865522400,6.4805224609375,0.34560292959213257,0.0813305452466011,0.2597367763519287
1760107156875588400,6.49058837890625,0.3048941195011139,-0.04186196252703667,0.1741076111793518
1760107156885653200,6.5006533203125,0.24951955676078796,-0.11367063969373703,0.09005212783813477
1760107156895719200,6.51071923828125,0.21141451597213745,-0.10575572401285172,0.0278026033192873
1760107156905784300,6.520784423828125,0.2029043734073639,-0.034089792519807816,-0.0045572011731565
1760107156915850500,6.5308505859375,0.23444153368473053,0.04133971780538559,-0.02082964777946472
1760107156925915100,6.5409150390625,0.27556338906288147,0.0790756419301033,-0.04337437078356743
1760107156935981300,6.550981201171875,0.3154461085796356,0.07395917922258377,-0.08106875419616699
1760107156946046500,6.56104638671875,0.33089375495910645,0.040219057351350784,-0.12629562616348267
1760107156956111000,6.571111083984375,0.3107490837574005,0.01780110038816929,-0.17284581065177917
1760107156966177300,6.58117724609375,0.256949782371521,0.01053333468735218,-0.2000630497932434
1760107156976242200,6.5912421875,0.19543154537677765,0.02425074391067028,-0.2080160528421402
1760107156986308400,6.601308349609375,0.14235235750675201,0.052619267255067825,-0.17880649864673615
1760107156996373500,6.61137353515625,0.12519413232803345,0.07424147427082062,-0.12465164810419083
1760107157006439200,6.621439208984375,0.14192518591880798,0.07534988224506378,-0.05506511777639389
1760107157016504300,6.63150439453125,0.19224108755588531,0.05450185760855675,0.010133327916264534
1760107157026570200,6.6415703125,0.25177231431007385,0.03798919543623924,0.0701652392745018
1760107157036635400,6.651635498046875,0.30160459876060486,0.038534875959157944,0.11246848851442337
1760107157046701300,6.661701416015625,0.3077796697616577,0.044427916407585144,0.11523071676492691
1760107157056766200,6.67176611328125,0.2657872140407562,0.038122352212667465,0.07909481972455978
1760107157066832400,6.681832275390625,0.21560819447040558,0.014727546833455563,0.020068516954779625
1760107157076897300,6.691897216796875,0.17629806697368622,-0.016386963427066803,-0.04668707773089409
1760107157086963500,6.70196337890625,0.15148192644119263,-0.04302683100104332,-0.098972387611866
1760107157097028400,6.7120283203125,0.142561137676239,-0.04404255747795105,-0.1287558525800705
1760107157107093200,6.72209326171875,0.14325356483459473,-0.028324315324425697,-0.12396828085184097
1760107157117159400,6.732159423828125,0.15512806177139282,-0.008567122742533684,-0.0926862582564354
1760107157127224300,6.742224365234375,0.16471731662750244,0.025478461757302284,-0.024525050073862076
1760107157137290200,6.752290283203125,0.16009458899497986,0.06703975051641464,0.052625127136707306
1760107157147355400,6.76235546875,0.14334064722061157,0.07955927401781082,0.1256340891122818
1760107157157421300,6.77242138671875,0.10816535353660583,0.06457260251045227,0.18380126357078552
1760107157167486200,6.782486328125,0.0621829479932785,0.020302874967455864,0.1991107016801834
1760107157177552100,6.79255224609375,0.02418629638850689,-0.05041869729757309,0.18356290459632874
1760107157187617300,6.8026171875,0.00529622845351696,-0.10926657170057297,0.14594416320323944
1760107157197683500,6.812683349609375,-0.012082495726644993,-0.14248603582382202,0.09414061158895493
1760107157207748000,6.822748046875,-0.0295480377972126,-0.1399586945772171,0.05107942968606949
1760107157217814300,6.832814208984375,-0.04841919615864754,-0.10501643270254135,0.029691848903894424
1760107157227879200,6.842879150390625,-0.05904148146510124,-0.057671286165714264,0.02358601987361908
1760107157237944300,6.8529443359375,-0.06777185946702957,-0.022965237498283386,0.024024643003940582
1760107157248010200,6.86301025390625,-0.06819450110197067,-0.030759243294596672,0.027578897774219513
1760107157258075100,6.8730751953125,-0.06881927698850632,-0.042459841817617416,0.05106664448976517
1760107157268141300,6.883141357421875,-0.06422505527734756,-0.035714320838451385,0.1027974858880043
1760107157278206500,6.89320654296875,-0.06926988810300827,0.01444019190967083,0.180816650390625
1760107157288272400,6.9032724609375,-0.07989349961280823,0.08653169870376587,0.26763996481895447
1760107157298337300,6.913337158203125,-0.10130930691957474,0.17138080298900604,0.3222970962524414
1760107157308403200,6.9234033203125,-0.10227283835411072,0.2435293048620224,0.31846532225608826
1760107157318468400,6.93346826171875,-0.10711207240819931,0.25230467319488525,0.2751498222351074
1760107157328534300,6.9435341796875,-0.11534150689840317,0.20481626689434052,0.22142000496387482
1760107157338599200,6.95359912109375,-0.11978153139352798,0.152555450797081,0.172671377658844
1760107157348665300,6.963665283203125,-0.11434894800186157,0.09227266907691956,0.16225682199001312
1760107157358730200,6.973730224609375,-0.1005774736404419,0.046420495957136154,0.18879921734333038
1760107157368796400,6.98379638671875,-0.07925886660814285,0.022943930700421333,0.2311495989561081
1760107157378861300,6.993861328125,-0.06967495381832123,0.010494452901184559,0.24597647786140442
1760107157388926200,7.00392626953125,-0.08791840076446533,0.011301656253635883,0.20215736329555511
1760107157398992400,7.013992431640625,-0.1233283281326294,0.036187831312417984,0.07475892454385757
1760107157409057300,7.024057373046875,-0.17437925934791565,0.09161034226417542,-0.13038356602191925
1760107157419123200,7.034123291015625,-0.21770383417606354,0.12987783551216125,-0.3838579058647156
1760107157429188400,7.044188232421875,-0.21822714805603027,0.13769182562828064,-0.6181159615516663
1760107157439254300,7.054254150390625,-0.160660520195961,0.15330353379249573,-0.7559207081794739
1760107157449319400,7.0643193359375,-0.07586733251810074,0.2030750811100006,-0.7776784300804138
1760107157459385000,7.074385009765625,0.0008929579053074121,0.24991822242736816,-0.6971580386161804
1760107157469450200,7.0844501953125,0.059363190084695816,0.2813839912414551,-0.5399415493011475
1760107157479516200,7.09451611328125,0.0913538783788681,0.2578009068965912,-0.3425123393535614
1760107157489581300,7.104581298828125,0.09627699851989746,0.19087088108062744,-0.13553892076015472
1760107157499647500,7.1146474609375,0.07500606775283813,0.11725551635026932,0.05271540954709053
1760107157509712100,7.124712158203125,0.04326651245355606,0.024640897288918495,0.20240317285060883
1760107157519777300,7.13477734375,0.008065116591751575,-0.041908036917448044,0.3085953891277313
1760107157529843500,7.144843505859375,-0.007800132501870394,-0.07519248872995377,0.36242905259132385
1760107157539908000,7.154908203125,-0.002329733222723007,-0.09235203266143799,0.3603390157222748
1760107157549974300,7.164974365234375,0.030720362439751625,-0.07551340013742447,0.32415011525154114
1760107157560039200,7.1750390625,0.08181416988372803,-0.03832901269197464,0.26600131392478943
1760107157570105300,7.185105224609375,0.1246950626373291,-0.015916649252176285,0.19677618145942688
1760107157580170200,7.195170166015625,0.13831552863121033,-0.0271298885345459,0.12041216343641281
1760107157590236200,7.205236083984375,0.11951521039009094,-0.061105962842702866,0.040538638830184937
1760107157600301300,7.21530126953125,0.07147365063428879,-0.09119302779436111,-0.03143169358372688
1760107157610367200,7.2253671875,0.014453241601586342,-0.10687211900949478,-0.0862475335597992
1760107157620432400,7.235432373046875,-0.040463801473379135,-0.09743361175060272,-0.12224122136831284
1760107157630498000,7.245498046875,-0.08187249302864075,-0.07443615049123764,-0.1290796846151352
1760107157640563200,7.255563232421875,-0.10065523535013199,-0.0442739874124527,-0.11280085146427155
1760107157650628400,7.26562841796875,-0.09324099868535995,-0.0004948153509758413,-0.07936326414346695
1760107157660694300,7.2756943359375,-0.08316013216972351,0.04737070947885513,-0.0475427508354187
1760107157670759200,7.28575927734375,-0.07550301402807236,0.07425399124622345,-0.03296540677547455
1760107157680825300,7.295825439453125,-0.0578467883169651,0.08864757418632507,-0.04145289957523346
1760107157690890200,7.30589013671875,-0.03759824112057686,0.11081866174936295,-0.06299574673175812
1760107157700956400,7.315956298828125,-0.003747866488993168,0.11460328102111816,-0.08778737485408783
1760107157711021300,7.326021240234375,0.04078178480267525,0.10034897178411484,-0.0874992236495018
1760107157721087200,7.336087158203125,0.091238833963871,0.08978155255317688,-0.05741056054830551
1760107157731152400,7.34615234375,0.1259523332118988,0.09372835606336594,-0.0022719427943229675
1760107157741218300,7.35621826171875,0.1403648406267166,0.09763627499341965,0.045584529638290405
1760107157751283200,7.366283203125,0.1371551901102066,0.08704568445682526,0.08363177627325058
1760107157761349000,7.37634912109375,0.11310684680938721,0.07678452879190445,0.09182419627904892
1760107157771414300,7.386414306640625,0.07450032979249954,0.06126149371266365,0.07270323485136032
1760107157781479400,7.3964794921875,0.03436756134033203,0.048222921788692474,0.04250005632638931
1760107157791545000,7.406545166015625,-0.002919357270002365,0.034516431391239166,0.002523345174267888
1760107157801610200,7.4166103515625,-0.014665495604276657,0.014697186648845673,-0.03274569660425186
1760107157811676200,7.42667626953125,-0.009922405704855919,0.0012980246683582664,-0.04427265748381615
1760107157821741300,7.4367412109375,0.007763114292174578,0.014625548385083675,-0.02466273494064808
1760107157831807500,7.446807373046875,0.019882362335920334,0.023968448862433434,0.0024610271211713552
1760107157841872100,7.4568720703125,0.02118784375488758,0.02881886437535286,0.033129192888736725
1760107157851938300,7.466938232421875,0.014887602999806404,0.052085839211940765,0.06568153947591782
1760107157862003200,7.477003173828125,0.005911951418966055,0.07286408543586731,0.07326755672693253
1760107157872069400,7.4870693359375,-0.011020959354937077,0.06781340390443802,0.05626007542014122
1760107157882134300,7.49713427734375,-0.021619275212287903,0.043417781591415405,0.03224928304553032
1760107157892200200,7.5072001953125,-0.01919633150100708,0.02683214657008648,0.007414773106575012
1760107157902265300,7.517265380859375,-0.003841077210381627,0.02713627927005291,-0.010570352897047997
1760107157912330200,7.527330322265625,-0.0013789847726002336,0.0033984598703682423,-0.025377528741955757
1760107157922396200,7.537396240234375,0.010677145794034004,-0.029402364045381546,-0.020959343761205673
1760107157932461300,7.54746142578125,0.040229178965091705,-0.038532745093107224,0.0054789213463664055
1760107157942527200,7.55752734375,0.07723300158977509,-0.04703328758478165,0.04628707095980644
1760107157952592400,7.56759228515625,0.10211198776960373,-0.05260542035102844,0.10229387879371643
1760107157962658000,7.577657958984375,0.11475641280412674,-0.03702113404870033,0.16298332810401917
1760107157972723200,7.58772314453125,0.11888590455055237,-0.031188545748591423,0.1974896341562271
1760107157982789400,7.597789306640625,0.11883211135864258,-0.042929090559482574,0.1990222930908203
1760107157992854300,7.607854248046875,0.11187806725502014,-0.06980198621749878,0.1753648966550827
1760107158002920200,7.617920166015625,0.11293108016252518,-0.054853394627571106,0.14333292841911316
1760107158012985300,7.6279853515625,0.12909859418869019,0.0033936661202460527,0.124021016061306
1760107158023050200,7.63805029296875,0.14732900261878967,0.0823713019490242,0.12415630370378494
1760107158033116400,7.648116455078125,0.16927771270275116,0.16237212717533112,0.13582174479961395
1760107158043181000,7.65818115234375,0.19178275763988495,0.2302055060863495,0.1450922042131424
1760107158053247200,7.668247314453125,0.2130046784877777,0.239393949508667,0.12812946736812592
1760107158063312400,7.6783125,0.21960213780403137,0.17021061480045319,0.0758604109287262
1760107158073378300,7.68837841796875,0.21354183554649353,0.04477332904934883,-0.011212174780666828
1760107158083443200,7.698443115234375,0.1884644478559494,-0.05252392962574959,-0.09479735046625137
1760107158093509000,7.708509033203125,0.16274204850196838,-0.06220638379454613,-0.15661464631557465
1760107158103574300,7.71857421875,0.14215554296970367,-0.004034156445413828,-0.1951790750026703
1760107158113640200,7.72864013671875,0.1312834471464157,0.07835099846124649,-0.21624095737934113
1760107158123705000,7.738705078125,0.1390628069639206,0.16391676664352417,-0.2368181347846985
1760107158133771300,7.748771240234375,0.1457449495792389,0.2255212664604187,-0.2531081736087799
1760107158143836200,7.758836181640625,0.16463342308998108,0.27373379468917847,-0.25317925214767456
1760107158153901300,7.7689013671875,0.1838579773902893,0.3175995349884033,-0.21434319019317627
1760107158163967500,7.778967529296875,0.19556763768196106,0.35906708240509033,-0.14504693448543549
1760107158174032100,7.7890322265625,0.20899608731269836,0.41146132349967957,-0.05801643058657646
1760107158184098300,7.799098388671875,0.22588585317134857,0.4198412299156189,0.02683214657008648
1760107158194163700,7.809163818359375,0.2529422342777252,0.3684177100658417,0.08791520446538925
1760107158204230000,7.81922998046875,0.2687070965766907,0.25384798645973206,0.11734206974506378
1760107158214294800,7.829294677734375,0.25758281350135803,0.08759855479001999,0.10355754941701889
1760107158224361000,7.83936083984375,0.2184644341468811,-0.05955174192786217,0.06585464626550674
1760107158234425900,7.84942578125,0.17731405794620514,-0.13121634721755981,0.03978709504008293
1760107158244491800,7.85949169921875,0.15143266320228577,-0.11883131414651871,0.023920778185129166
1760107158254557000,7.869556884765625,0.1458594650030136,-0.0660431981086731,0.00890987180173397
1760107158264622000,7.8796220703125,0.1586679369211197,-0.016282299533486366,-0.01648150570690632
1760107158274688000,7.88968798828125,0.17672257125377655,0.012063853442668915,-0.06919744610786438
1760107158284753000,7.8997529296875,0.1866857260465622,0.008683236315846443,-0.1401429921388626
1760107158294818800,7.90981884765625,0.17013125121593475,-0.015359781682491302,-0.2292582243680954
1760107158304884000,7.919884033203125,0.13833630084991455,-0.0339859314262867,-0.3171156346797943
1760107158314950000,7.929949951171875,0.10420975834131241,-0.005766542628407478,-0.38275083899497986
1760107158325014800,7.940014892578125,0.04932413995265961,0.04285265877842903,-0.40239137411117554
1760107158335081000,7.9500810546875,0.006024336442351341,0.0860307514667511,-0.3659460246562958
1760107158345145900,7.960145751953125,0.005024319514632225,0.15274614095687866,-0.2810724079608917
1760107158355212000,7.9702119140625,0.03134540468454361,0.1753252148628235,-0.17189666628837585
1760107158365277000,7.98027685546875,0.09407323598861694,0.17049024999141693,-0.06415075808763504
1760107158375342800,7.9903427734375,0.1822052299976349,0.1270114779472351,0.0395311638712883
1760107158385408000,8.000407958984376,0.24723322689533234,0.0839763954281807,0.10815417021512985
1760107158395473000,8.010472900390624,0.27482491731643677,0.06558992713689804,0.13763189315795898
1760107158405538800,8.020538818359375,0.2582632303237915,0.04926927760243416,0.1274074912071228
1760107158415604000,8.03060400390625,0.2103268802165985,0.05892616882920265,0.08188767731189728
1760107158425670000,8.040669921875,0.15376639366149902,0.03624748811125755,0.00797563511878252
1760107158435735000,8.050735107421875,0.09901952743530273,-0.013420999981462955,-0.06715453416109085
1760107158445800700,8.06080078125,0.06138293445110321,-0.05841750279068947,-0.12114133685827255
1760107158455865900,8.070865966796875,0.05440971255302429,-0.09937585890293121,-0.1174139752984047
1760107158465931800,8.080931884765626,0.07937285304069519,-0.17244286835193634,-0.07724658399820328
1760107158475997000,8.090996826171875,0.12496403604745865,-0.2044849693775177,0.020504742860794067
1760107158486063000,8.10106298828125,0.15929006040096283,-0.1893739253282547,0.13561242818832397
1760107158496127700,8.111127685546874,0.16621613502502441,-0.1691512018442154,0.24372291564941406
1760107158506193000,8.12119287109375,0.14586293697357178,-0.14109188318252563,0.3166985809803009
1760107158516259000,8.131259033203126,0.11040986329317093,-0.1192515566945076,0.3396475911140442
1760107158526323700,8.14132373046875,0.0716848373413086,-0.10300654172897339,0.31892046332359314
1760107158536390000,8.151389892578125,0.028986910358071327,-0.10875790566205978,0.24889211356639862
1760107158546454800,8.161454833984376,0.0018226674292236567,-0.14284157752990723,0.14559555053710938
1760107158556521000,8.17152099609375,-0.009103483520448208,-0.17627117037773132,0.0443381704390049
1760107158566585900,8.1815859375,-0.03285568580031395,-0.1883411407470703,-0.044431913644075394
1760107158576651800,8.19165185546875,-0.06405914574861526,-0.1953154355287552,-0.10197962820529938
1760107158586717000,8.201717041015625,-0.0868198499083519,-0.18854966759681702,-0.11928538233041763
1760107158596782800,8.211782958984376,-0.09751510620117188,-0.16259583830833435,-0.09712868183851242
1760107158606848000,8.221847900390625,-0.09740431606769562,-0.11805207282304764,-0.035473037511110306
1760107158616913000,8.231912841796875,-0.09866665303707123,-0.05380810424685478,0.050453852862119675
1760107158626978800,8.241978759765624,-0.10112741589546204,0.03128308802843094,0.15068085491657257
1760107158637044000,8.2520439453125,-0.10277431458234787,0.12787488102912903,0.25307008624076843
1760107158647110000,8.26210986328125,-0.10414637625217438,0.219071626663208,0.33402085304260254
1760107158657174800,8.2721748046875,-0.09677208214998245,0.2676663398742676,0.3787326514720917
1760107158667241000,8.282240966796875,-0.07136712223291397,0.2505699098110199,0.37486228346824646
1760107158677305900,8.292305908203126,-0.04905356094241142,0.1593792736530304,0.3341050148010254
1760107158687372000,8.3023720703125,-0.025974875316023827,0.06333529949188232,0.27690988779067993
1760107158697437000,8.31243701171875,-0.018448248505592346,-0.010513094253838062,0.21979308128356934
1760107158707502800,8.3225029296875,-0.017139039933681488,-0.06501495093107224,0.17006999254226685
1760107158717568000,8.332568115234375,-0.02046879008412361,-0.08260619640350342,0.12943096458911896
1760107158727633000,8.3426328125,-0.0337425172328949,-0.09122178703546524,0.06421573460102081
1760107158737698800,8.35269873046875,-0.0784282311797142,-0.12486577033996582,-0.04663008451461792
1760107158747764000,8.362763916015625,-0.1593363881111145,-0.16610242426395416,-0.22966328263282776
1760107158757830000,8.372829833984374,-0.24359428882598877,-0.1934317797422409,-0.4361421465873718
1760107158767895000,8.38289501953125,-0.31196776032447815,-0.1737973541021347,-0.6347889304161072
1760107158777960700,8.392960693359376,-0.3482876718044281,-0.09446312487125397,-0.7629096508026123
1760107158788025900,8.40302587890625,-0.353337824344635,0.004192614462226629,-0.8093155026435852
1760107158798091800,8.413091796875,-0.3328818082809448,0.11359340697526932,-0.7538242340087891
1760107158808157000,8.423156982421874,-0.24588540196418762,0.2526825964450836,-0.584430992603302
1760107158818223000,8.43322314453125,-0.11976315081119537,0.3722268342971802,-0.32987695932388306
1760107158828287700,8.443287841796876,0.007364705670624971,0.4085198640823364,-0.04171016067266464
1760107158838353000,8.453352783203124,0.07683379203081131,0.34732785820961,0.21154020726680756
1760107158848419000,8.463419189453125,0.05478015914559364,0.19840869307518005,0.3966924846172333
1760107158858483700,8.473483642578126,-0.023792946711182594,0.005023787263780832,0.4958353042602539
1760107158868550000,8.4835498046875,-0.10923594236373901,-0.15374216437339783,0.5112547278404236
1760107158878614800,8.49361474609375,-0.18292534351348877,-0.24539963901042938,0.4583446681499481
1760107158888681000,8.503680908203124,-0.2166026085615158,-0.25867095589637756,0.35901835560798645
1760107158898745900,8.513745849609375,-0.219293475151062,-0.20787224173545837,0.23077036440372467
1760107158908811800,8.523811767578126,-0.2013283222913742,-0.13148106634616852,0.08176330476999283
1760107158918877000,8.533876953125,-0.18789000809192657,-0.06193900108337402,-0.06985151767730713
1760107158928942800,8.54394287109375,-0.1776466965675354,-0.03413320332765579,-0.20903737843036652
1760107158939008000,8.554008056640624,-0.18221427500247955,-0.033241841942071915,-0.3238164186477661
1760107158949073000,8.564072998046875,-0.2091825157403946,-0.060735251754522324,-0.3956298828125
1760107158959138800,8.574138916015626,-0.2529510259628296,-0.09279811382293701,-0.4284594655036926
1760107158969204000,8.584203857421874,-0.2868211269378662,-0.1331023871898651,-0.40205955505371094
1760107158979270000,8.594269775390625,-0.29600316286087036,-0.1352560967206955,-0.3040805160999298
1760107158989334800,8.604334716796876,-0.29412323236465454,-0.08431727439165115,-0.16490799188613892
1760107158999401000,8.61440087890625,-0.27269092202186584,-0.017311612144112587,-0.00723580876365304
1760107159009465900,8.6244658203125,-0.21849718689918518,0.05926838144659996,0.13898931443691254
1760107159019532000,8.634531982421874,-0.14316967129707336,0.11949817091226578,0.23082788288593292
1760107159029597000,8.644596923828125,-0.08231671154499054,0.1190936341881752,0.2495214194059372
1760107159039662800,8.654662841796876,-0.04838670790195465,0.09112325310707092,0.19697405397891998
1760107159049728000,8.66472802734375,-0.03983290120959282,0.034569960087537766,0.11409914493560791
1760107159059793000,8.67479296875,-0.05712294206023216,-0.003457315731793642,0.0255208071321249
1760107159069858800,8.68485888671875,-0.10064751654863358,-0.043585292994976044,-0.030767766758799553
1760107159079924000,8.694924072265625,-0.1473681479692459,-0.06299307942390442,-0.035293810069561005
1760107159089990000,8.704989990234376,-0.1743782013654709,-0.05137743800878525,0.011683819815516472
1760107159100055000,8.715054931640625,-0.17911489307880402,-0.018857045099139214,0.07907271385192871
1760107159110120700,8.72512060546875,-0.17575611174106598,0.012958941981196404,0.13209651410579681
1760107159120185900,8.735185791015626,-0.17212195694446564,0.03429725393652916,0.16040778160095215
1760107159130251800,8.745251708984375,-0.18408940732479095,0.045160021632909775,0.13613572716712952
1760107159140317000,8.75531689453125,-0.20326390862464905,0.026741333305835724,0.07398580759763718
1760107159150381800,8.7653818359375,-0.2180553674697876,0.015605591237545013,0.00021438446128740907
1760107159160447700,8.77544775390625,-0.2109955996274948,0.017359016463160515,-0.05819379910826683
1760107159170513000,8.785512939453126,-0.18866871297359467,0.033071134239435196,-0.07402575761079788
1760107159180579000,8.7955791015625,-0.15980218350887299,0.03386235982179642,-0.05861590802669525
1760107159190643200,8.805643310546875,-0.1309012919664383,0.022420620545744896,-0.019521769136190414
1760107159200709000,8.815709228515624,-0.10140624642372131,0.0183491799980402,0.03640221431851387
1760107159210774300,8.825774169921875,-0.07392828911542892,0.017120929434895515,0.08810988813638687
1760107159220840200,8.835840087890626,-0.04346198961138725,0.016453808173537254,0.1312943696975708
1760107159230905000,8.845905029296874,-0.0062128882855176926,0.012749616988003254,0.15420208871364594
1760107159240970200,8.85597021484375,0.03002394549548626,-0.004433630499988794,0.16631920635700226
1760107159251036200,8.8660361328125,0.06336192786693573,-0.024393223226070404,0.1604972630739212
1760107159261101300,8.876101318359375,0.08496095985174179,-0.04457838833332062,0.13371331989765167
1760107159271167000,8.8861669921875,0.10222703218460083,-0.04652702063322067,0.10374077409505844
1760107159281232100,8.896232177734374,0.11796871572732925,-0.03111477568745613,0.08904891461133957
1760107159291298000,8.906298095703125,0.12789565324783325,-0.00567013630643487,0.07418208569288254
1760107159301363200,8.91636328125,0.1239326000213623,0.005308479070663452,0.06656331568956375
1760107159311429000,8.92642919921875,0.1299782395362854,0.007711182814091444,0.05981006845831871
1760107159321494000,8.936493896484375,0.15394216775894165,-0.002231728984043002,0.06085536256432533
1760107159331560200,8.946560302734374,0.17983661592006683,0.0018631474813446403,0.09616674482822418
1760107159341625000,8.956625,0.23374724388122559,0.049908969551324844,0.1467428356409073
1760107159351690000,8.96668994140625,0.2895575165748596,0.0782410055398941,0.2000201791524887
1760107159361756200,8.976756103515624,0.3317238688468933,0.10032660514116287,0.23268970847129822
1760107159371821000,8.986821044921875,0.35377299785614014,0.09232620149850845,0.224282369017601
1760107159381887200,8.99688720703125,0.34808287024497986,0.0266028493642807,0.15852892398834229
1760107159391952100,9.0069521484375,0.3245200216770172,-0.07047256827354431,0.05367015302181244
1760107159402018000,9.01701806640625,0.31291264295578003,-0.16624782979488373,-0.07190588116645813
1760107159412083200,9.027083251953124,0.3155134916305542,-0.2220085710287094,-0.192115917801857
1760107159422149000,9.037149169921875,0.33034488558769226,-0.24125362932682037,-0.3126159608364105
1760107159432214000,9.047214111328126,0.3773573935031891,-0.22889763116836548,-0.38838714361190796
1760107159442280000,9.057280029296875,0.44266477227211,-0.17119012773036957,-0.3842129111289978
1760107159452345000,9.067344970703125,0.5115479826927185,-0.09484901279211044,-0.307536244392395
1760107159462410200,9.07741015625,0.547980785369873,0.0036639769095927477,-0.1794011890888214
1760107159472476200,9.08747607421875,0.5368219017982483,0.10152236372232437,-0.046364836394786835
1760107159482541000,9.097541015625,0.47443175315856934,0.18816804885864258,0.05489440634846687
1760107159492607200,9.107607177734375,0.39003831148147583,0.2531830072402954,0.08920710533857346
1760107159502672100,9.117672119140625,0.3105306923389435,0.29078948497772217,0.0694403275847435
1760107159512738300,9.12773828125,0.26701119542121887,0.26337864995002747,0.0181124247610569
1760107159522803000,9.137802978515625,0.25291135907173157,0.1590370535850525,-0.025768212974071503
1760107159532869000,9.147869140625,0.2814529836177826,0.04551315680146217,-0.047262053936719894
1760107159542934300,9.157934326171874,0.3506584167480469,-0.05762787535786629,-0.0326671339571476
1760107159552999000,9.1679990234375,0.4334252178668976,-0.13081634044647217,0.0276769008487463
1760107159563065000,9.178065185546876,0.4808257520198822,-0.12794464826583862,0.12714223563671112
1760107159573130200,9.188130126953125,0.461605429649353,-0.043831370770931244,0.22591835260391235
1760107159583196200,9.198196044921875,0.39679449796676636,0.015935556963086128,0.2794390916824341
1760107159593261300,9.20826123046875,0.3276199400424957,0.05523369461297989,0.2719028890132904
1760107159603327000,9.218326904296875,0.24618953466415405,0.07912624627351761,0.20099543035030365
1760107159613392100,9.22839208984375,0.15172986686229706,0.10865537077188492,0.06376247107982635
1760107159623458000,9.2384580078125,0.06814496219158173,0.13221928477287292,-0.11007031053304672
1760107159633523200,9.248523193359375,0.013762150891125202,0.12319862842559814,-0.2834860384464264
1760107159643589000,9.258589111328124,-0.0013731258222833276,0.09882111847400665,-0.4111260175704956
1760107159653654000,9.268654052734375,0.030554447323083878,0.07549688965082169,-0.44483044743537903
1760107159663719200,9.27871923828125,0.076202891767025,0.05260195955634117,-0.3844057321548462
1760107159673785000,9.28878515625,0.1088993176817894,0.038242459297180176,-0.2565140724182129
1760107159683850000,9.29885009765625,0.12035676836967468,0.029700636863708496,-0.09404953569173813
1760107159693916200,9.308916259765626,0.10383851081132889,0.015480688773095608,0.059410061687231064
1760107159703981000,9.31898095703125,0.03925099968910217,0.02534370683133602,0.1690199077129364
1760107159714047200,9.329047119140625,-0.05672692880034447,0.046189066022634506,0.193014994263649
1760107159724112100,9.339112060546874,-0.1488850861787796,0.06025109067559242,0.13408003747463226
1760107159734178000,9.349177978515625,-0.21044059097766876,0.08063146471977234,0.017043964937329292
1760107159744243200,9.3592431640625,-0.22408582270145416,0.12280102074146271,-0.11215236783027649
1760107159754308000,9.36930810546875,-0.17832180857658386,0.1647772341966629,-0.22079841792583466
1760107159764374300,9.379374267578125,-0.09574250131845474,0.18266116082668304,-0.26637229323387146
1760107159774439200,9.389439208984374,-0.0073327478021383286,0.18750597536563873,-0.23778699338436127
1760107159784505000,9.399505126953125,0.05850006267428398,0.18052662909030914,-0.152012437582016
1760107159794570200,9.4095703125,0.08244001865386963,0.1460123360157013,-0.03923874720931053
1760107159804636200,9.41963623046875,0.07097803801298141,0.10636452585458755,0.06402266025543213
1760107159814701000,9.429701171875,0.0364227220416069,0.06923579424619675,0.13952887058258057
1760107159824767200,9.439767333984374,-0.008695220574736595,0.039808131754398346,0.17464344203472137
1760107159834832100,9.44983203125,-0.07073089480400085,0.004535629414021969,0.17246204614639282
1760107159844898300,9.459898193359376,-0.12030963599681854,-0.03045830689370632,0.13201528787612915
1760107159854963000,9.469962890625,-0.14913542568683624,-0.07726442813873291,0.07084381580352783
1760107159865028000,9.480028076171875,-0.15394535660743713,-0.11138005554676056,0.019043199717998505
1760107159875094300,9.49009423828125,-0.14340776205062866,-0.1299010068178177,-0.0175052247941494
1760107159885159200,9.5001591796875,-0.11706510186195374,-0.14703792333602905,-0.03591619059443474
1760107159895225000,9.51022509765625,-0.07271681725978851,-0.1786602884531021,-0.029098762199282646
1760107159905290200,9.520290283203124,-0.036681849509477615,-0.21164380013942719,-0.010527209378778934
1760107159915356200,9.530356201171875,-0.020002469420433044,-0.21617357432842255,0.027455592527985573
1760107159925421300,9.54042138671875,-0.017740914598107338,-0.19765901565551758,0.06168866530060768
1760107159935487000,9.550487060546875,-0.02689899131655693,-0.15483830869197845,0.0836498886346817
1760107159945552100,9.56055224609375,-0.045945387333631516,-0.12682266533374786,0.09567459672689438
1760107159955617300,9.5706171875,-0.06863072514533997,-0.10262038558721542,0.10868972539901733
1760107159965683200,9.58068310546875,-0.07774539291858673,-0.09181620925664902,0.13842551410198212
1760107159975748000,9.590748046875,-0.05397322028875351,-0.08577296137809753,0.22117392718791962
1760107159985814000,9.60081396484375,-0.005642172880470753,-0.057803645730018616,0.32858002185821533
1760107159995879200,9.610879150390625,0.0390629805624485,-0.06084790453314781,0.42155390977859497
1760107160005945000,9.620945068359376,0.058765579015016556,-0.10240466892719269,0.46064645051956177
1760107160016010000,9.631010009765625,0.058649998158216476,-0.14880439639091492,0.4401318430900574
1760107160026076200,9.641076171875,0.03340642526745796,-0.13919810950756073,0.3713945746421814
1760107160036141000,9.65114111328125,-0.018129469826817513,-0.08800601959228516,0.2727103531360626
1760107160046206200,9.661206298828125,-0.09699977934360504,-0.007577492389827967,0.15099191665649414
1760107160056272100,9.671272216796876,-0.17921103537082672,0.07995182275772095,-0.003653324441984296
1760107160066337000,9.6813369140625,-0.2543555796146393,0.13200543820858002,-0.18766337633132935
1760107160076403200,9.6914033203125,-0.30838099122047424,0.1503700613975525,-0.3736574649810791
1760107160086468000,9.701468017578126,-0.3494461476802826,0.129970520734787,-0.560305118560791
1760107160096534300,9.7115341796875,-0.37787431478500366,0.09557712078094482,-0.7340867519378662
1760107160106599200,9.72159912109375,-0.3801039159297943,0.07141772657632828,-0.8673385381698608
1760107160116665000,9.7316650390625,-0.3347785174846649,0.08265599608421326,-0.9254913330078125
1760107160126730200,9.741730224609375,-0.2666362226009369,0.14393053948879242,-0.8905664086341858
1760107160136795100,9.751795166015626,-0.2110118418931961,0.1928834319114685,-0.7540112137794495
1760107160146861000,9.761861083984375,-0.12739071249961853,0.2382301390171051,-0.510762095451355
1760107160156926200,9.77192626953125,-0.03634708747267723,0.257545530796051,-0.1868889331817627
1760107160166992100,9.7819921875,0.027698472142219543,0.23696434497833252,0.16248318552970886
1760107160177057000,9.79205712890625,0.05718392878770828,0.16848409175872803,0.46415889263153076
1760107160187123000,9.802123046875,0.058989815413951874,0.06413797289133072,0.6615201830863953
1760107160197187800,9.812187744140624,0.060317933559417725,-0.05290582403540611,0.7382959127426147
1760107160207254000,9.82225390625,0.043836429715156555,-0.15204891562461853,0.6925217509269714
1760107160217319000,9.83231884765625,-0.0009086705395020545,-0.22355052828788757,0.5546501874923706
1760107160227384000,9.842384033203125,-0.05548189952969551,-0.25702646374702454,0.35620126128196716
1760107160237450200,9.8524501953125,-0.10980745404958725,-0.22337903082370758,0.1399182230234146
1760107160247515000,9.862514892578124,-0.1489037275314331,-0.13375966250896454,-0.05107463523745537
1760107160257581000,9.8725810546875,-0.18525587022304535,-0.03364424780011177,-0.21417087316513062
1760107160267646000,9.88264599609375,-0.22494283318519592,0.04704686999320984,-0.3471188247203827
1760107160277712100,9.892712158203125,-0.25752127170562744,0.08297611027956009,-0.4408905804157257
1760107160287777000,9.902777099609375,-0.2760941684246063,0.09648153185844421,-0.4967072308063507
1760107160297843000,9.912843017578124,-0.2808460593223572,0.09017543494701385,-0.5187699198722839
1760107160307908000,9.922908203125,-0.269800066947937,0.07343320548534393,-0.5079220533370972
1760107160317973000,9.932972900390626,-0.2467155009508133,0.06288735568523407,-0.45780298113822937
1760107160328039000,9.943038818359375,-0.21062195301055908,0.06762617826461792,-0.36533403396606445
1760107160338104000,9.95310400390625,-0.1676366627216339,0.07465719431638718,-0.22416572272777557
1760107160348170000,9.963169921875,-0.12386228889226913,0.09113310277462006,-0.060574132949113846
1760107160358235100,9.973235107421875,-0.09495953470468521,0.11142799258232117,0.08690586686134338
1760107160368300800,9.98330078125,-0.0640128031373024,0.09062311053276062,0.1807980090379715
1760107160378366000,9.993365966796874,-0.02978932112455368,0.042623359709978104,0.21395862102508545
1760107160388432100,10.00343212890625,0.002285258611664176,-0.007225688546895981,0.18670623004436493
1760107160398497000,10.0134970703125,0.009584716521203518,-0.05019259825348854,0.12272512167692184
1760107160408562000,10.02356201171875,-0.0010724549647420645,-0.07046084851026535,0.05005570873618126
1760107160418628000,10.033628173828125,-0.014020743779838085,-0.08052387088537216,-0.008139685727655888
1760107160428693000,10.04369287109375,-0.02370373159646988,-0.06112274155020714,-0.024269919842481613
1760107160438759200,10.05375927734375,-0.03580833226442337,-0.018639730289578438,-0.005244030617177486
1760107160448823800,10.06382373046875,-0.03800810128450394,0.02269519306719303,0.03573962301015854
1760107160458890000,10.073889892578125,-0.04414935037493706,0.03622831031680107,0.06640379130840302
1760107160468955100,10.083955078125,-0.04253547638654709,0.017894046381115913,0.07559648901224136
1760107160479021000,10.09402099609375,-0.020069316029548645,-0.010210026986896992,0.08572342991828918
1760107160489086000,10.1040859375,0.00968431867659092,-0.01948634907603264,0.09171101450920105
1760107160499151000,10.114151123046875,0.046189598739147186,-0.012267318554222584,0.10187842696905136
1760107160509217000,10.124217041015624,0.07203131914138794,0.009349825792014599,0.1141422837972641
1760107160519282200,10.1342822265625,0.0913243219256401,-0.0057798586785793304,0.11794820427894592
1760107160529347800,10.144347900390626,0.10505717992782593,-0.03263171389698982,0.12381541728973389
1760107160539413000,10.1544130859375,0.10104485601186752,-0.04626869410276413,0.13441133499145508
1760107160549479000,10.16447900390625,0.0779041200876236,-0.05680122971534729,0.1558561772108078
1760107160559544000,10.1745439453125,0.04494057595729828,-0.07168537378311157,0.17003165185451508
1760107160569610200,10.1846103515625,0.010388725437223911,-0.07765484601259232,0.1768011450767517
1760107160579675000,10.1946748046875,-0.006918360013514757,-0.11886406689882278,0.17518992722034454
1760107160589740000,10.204739990234375,0.005766542628407478,-0.16093988716602325,0.17845895886421204
1760107160599806000,10.214805908203125,0.0433216392993927,-0.1658313125371933,0.18631234765052795
1760107160609870800,10.224870849609376,0.09568231552839279,-0.15204013884067535,0.20189717411994934
1760107160619937000,10.23493701171875,0.13657115399837494,-0.13864043354988098,0.21754057705402374
1760107160630002000,10.245001953125,0.16817329823970795,-0.12002840638160706,0.23466309905052185
1760107160640068000,10.255068115234375,0.17844510078430176,-0.10484892129898071,0.25779053568840027
1760107160650133000,10.265133056640625,0.17162474989891052,-0.07490886002779007,0.2819477915763855
1760107160660199000,10.275198974609374,0.18846844136714935,0.00768721429631114,0.32518714666366577
1760107160670264000,10.28526416015625,0.23448361456394196,0.1192861795425415,0.37400689721107483
1760107160680329000,10.295328857421875,0.30694475769996643,0.20026731491088867,0.4227355420589447
1760107160690395100,10.30539501953125,0.3758215606212616,0.21908734738826752,0.4410698115825653
1760107160700460000,10.3154599609375,0.4363189935684204,0.21870650351047516,0.42333927750587463
1760107160710526000,10.32552587890625,0.47784194350242615,0.19470477104187012,0.3851631283760071
1760107160720591000,10.335591064453125,0.49671921133995056,0.15886634588241577,0.31663307547569275
1760107160730657000,10.345656982421875,0.48539865016937256,0.12866877019405365,0.2267170250415802
1760107160740722000,10.355721923828124,0.4537248909473419,0.1293550580739975,0.11861693114042282
1760107160750788000,10.3657880859375,0.41210606694221497,0.14853620529174805,0.01429105456918478
1760107160760853000,10.37585302734375,0.3467603623867035,0.1702159345149994,-0.07589955627918243
1760107160770918100,10.385918212890624,0.28956788778305054,0.1805492639541626,-0.13502758741378784
1760107160780983800,10.39598388671875,0.242440864443779,0.19593675434589386,-0.16091617941856384
1760107160791049000,10.406049072265626,0.21710088849067688,0.2149258852005005,-0.16110312938690186
1760107160801115100,10.416115234375,0.21930891275405884,0.20200157165527344,-0.15649773180484772
1760107160811180000,10.426179931640625,0.23926079273223877,0.16407841444015503,-0.1343735158443451
1760107160821246000,10.436245849609374,0.28150996565818787,0.11383602023124695,-0.08176223933696747
1760107160831311000,10.44631103515625,0.3323286771774292,0.09455899894237518,0.011167965829372406
1760107160841377000,10.456376953125,0.3719687759876251,0.09273845702409744,0.1174243614077568
1760107160851442200,10.466442138671875,0.38952672481536865,0.08147621899843216,0.21765589714050293
1760107160861506800,10.4765068359375,0.3857620656490326,0.04382631182670593,0.2763729989528656
1760107160871573000,10.486572998046874,0.3679625689983368,-0.011472897604107857,0.28797000646591187
1760107160881638100,10.49663818359375,0.340006560087204,-0.05759618431329727,0.24590323865413666
1760107160891704000,10.5067041015625,0.30927368998527527,-0.07861065864562988,0.15731824934482574
1760107160901769000,10.51676904296875,0.29599782824516296,-0.07858908176422119,0.04140176996588707
1760107160911835000,10.5268349609375,0.2980617880821228,-0.07074474543333054,-0.0688999742269516
1760107160921900000,10.536900146484374,0.30267012119293213,-0.07210934907197952,-0.17430175840854645
1760107160931965200,10.546965087890625,0.30478546023368835,-0.09694971889257431,-0.2531534433364868
1760107160942030800,10.55703076171875,0.3033657371997833,-0.09427110850811005,-0.29523617029190063
1760107160952096000,10.567095947265624,0.2816157042980194,-0.058514177799224854,-0.29713234305381775
1760107160962162000,10.577161865234375,0.23797129094600677,-0.010124007239937782,-0.27184829115867615
1760107160972227000,10.58722705078125,0.1912384033203125,0.045891325920820236,-0.22260937094688416
1760107160982293200,10.597293212890625,0.1568886786699295,0.10411175340414047,-0.16745691001415253
1760107160992358000,10.60735791015625,0.1508888453245163,0.14047908782958984,-0.12094452977180481
1760107161002424000,10.617424072265624,0.16720017790794373,0.15665805339813232,-0.08630958944559097
1760107161012489000,10.627489013671875,0.19163654744625092,0.15254293382167816,-0.06325779855251312
1760107161022553900,10.637553955078126,0.21060997247695923,0.13327816128730774,-0.060513678938150406
1760107161032620000,10.6476201171875,0.20830287039279938,0.10103367269039154,-0.07778161019086838
1760107161042685000,10.657684814453125,0.18578504025936127,0.06574226170778275,-0.11637827754020691
1760107161052751000,10.667751220703124,0.1571619212627411,0.03214035928249359,-0.15806153416633606
1760107161062816000,10.67781591796875,0.1348678022623062,0.01019671093672514,-0.18421804904937744
1760107161072882000,10.6878818359375,0.1261448860168457,-0.00014460964302998036,-0.1956470012664795
1760107161082947000,10.697947021484374,0.12004943937063217,-0.003932423423975706,-0.18375438451766968
1760107161093012000,10.708011962890625,0.11390126496553421,-0.00025220136740244925,-0.16539108753204346
1760107161103078100,10.718078125,0.11674392968416214,0.013065734878182411,-0.1440029740333557
1760107161113143000,10.72814306640625,0.12581731379032135,0.03196033090353012,-0.12965786457061768
1760107161123209000,10.738208984375,0.11893464624881744,0.04755447059869766,-0.1264500766992569
1760107161133274000,10.748274169921874,0.09117384999990463,0.05680336058139801,-0.1258080005645752
1760107161143340000,10.758340087890625,0.06930317729711533,0.0698603093624115,-0.11872478574514389
1760107161153405000,10.768405029296876,0.06071474775671959,0.07897311449050903,-0.08720334619283676
1760107161163471000,10.77847119140625,0.0664471983909607,0.06992822140455246,-0.0334668792784214
1760107161173536000,10.788535888671875,0.08185358345508575,0.04699680209159851,0.03014991246163845
1760107161183601000,10.798600830078126,0.0998658761382103,0.022475481033325195,0.10098067671060562
1760107161193667000,10.8086669921875,0.10333491116762161,-0.011755192652344704,0.1524960696697235
1760107161203732200,10.818732177734375,0.08255879580974579,-0.06221304088830948,0.1672435849905014
1760107161213798400,10.82879833984375,0.038599058985710144,-0.1068982183933258,0.14588743448257446
1760107161223863300,10.83886328125,0.0012743226252496243,-0.1223118007183075,0.1067405641078949
1760107161233929200,10.84892919921875,-0.03669170290231705,-0.11483284085988998,0.07378607243299484
1760107161243994000,10.858994140625,-0.05945107713341713,-0.09695610404014587,0.04314134642481804
1760107161254059300,10.869059326171875,-0.0795464888215065,-0.07989723235368729,0.03050704300403595
1760107161264125400,10.87912548828125,-0.09992952644824982,-0.05807528644800186,0.028294222429394722
1760107161274190000,10.889190185546875,-0.1231917068362236,-0.015133412554860115,0.0313885472714901
1760107161284256300,10.89925634765625,-0.14533376693725586,0.039634495973587036,0.03772367537021637
1760107161294321400,10.9093212890625,-0.1722857505083084,0.08562808483839035,0.04626123979687691
1760107161304387300,10.91938720703125,-0.18634164333343506,0.1185748502612114,0.060142699629068375
1760107161314452200,10.9294521484375,-0.1814883053302765,0.10302411764860153,0.08683955669403076
1760107161324518100,10.93951806640625,-0.15378209948539734,0.02978692390024662,0.119949571788311
1760107161334583300,10.949583251953126,-0.13285338878631592,-0.09122418612241745,0.1431446373462677
1760107161344648400,10.9596484375,-0.11887525767087936,-0.20537525415420532,0.15738002955913544
1760107161354714000,10.969714111328125,-0.11447437852621078,-0.2559140622615814,0.15443670749664307
1760107161364779300,10.979779296875,-0.12002440541982651,-0.24242329597473145,0.13368962705135345
1760107161374845200,10.98984521484375,-0.13600417971611023,-0.20620723068714142,0.08164186775684357
1760107161384910300,10.999910400390625,-0.18807163834571838,-0.16803507506847382,-0.02864815667271614
1760107161394976300,11.009976318359374,-0.2478894293308258,-0.14481736719608307,-0.197554349899292
1760107161405041200,11.020041259765625,-0.2868557274341583,-0.12697872519493103,-0.3878704905509949
1760107161415107300,11.030107421875,-0.29537278413772583,-0.10438339412212372,-0.5381393432617188
1760107161425172200,11.040172119140625,-0.27256760001182556,-0.024150077253580093,-0.6032821536064148
1760107161435237000,11.050237060546875,-0.26416054368019104,0.10107575356960297,-0.5886736512184143
1760107161445303300,11.06030322265625,-0.2582123875617981,0.2243492156267166,-0.5042413473129272
1760107161455368200,11.0703681640625,-0.2331451028585434,0.3331148326396942,-0.35060808062553406
1760107161465434400,11.080434326171876,-0.1873166263103485,0.396750271320343,-0.16226346790790558
1760107161475499300,11.090499267578124,-0.1458600014448166,0.4035724997520447,0.01745089516043663
1760107161485565200,11.100565185546875,-0.11166421324014664,0.33360034227371216,0.15714648365974426
1760107161495630300,11.11063037109375,-0.09143244475126266,0.22903931140899658,0.2430880218744278
1760107161505695200,11.1206953125,-0.08593781292438507,0.10692352056503296,0.2858820855617523
1760107161515761400,11.130761474609375,-0.0954682007431984,0.0025419872254133224,0.28908851742744446
1760107161525826300,11.140826416015624,-0.11975036561489105,-0.0698762834072113,0.26987701654434204
1760107161535892200,11.150892333984375,-0.1552010327577591,-0.10602922737598419,0.22413510084152222
1760107161545957400,11.160957275390626,-0.16991740465164185,-0.13894057273864746,0.16456390917301178
1760107161556023300,11.171023193359375,-0.17456620931625366,-0.11547413468360901,0.08501049876213074
1760107161566088200,11.181088134765625,-0.15871773660182953,-0.05464646592736244,-0.0034562505315989256
1760107161576154000,11.191154052734374,-0.154178649187088,-0.013130982406437397,-0.1098141148686409
1760107161586219300,11.20121923828125,-0.16696608066558838,-0.007998005487024784,-0.23107582330703735
1760107161596284200,11.2112841796875,-0.18902531266212463,-0.03171691671013832,-0.34801816940307617
1760107161606350000,11.22135009765625,-0.20741631090641022,-0.05706088989973068,-0.4286850392818451
1760107161616415200,11.231415283203125,-0.21835124492645264,-0.04313362017273903,-0.45692920684814453
1760107161626481400,11.2414814453125,-0.21925538778305054,-0.01727858930826187,-0.4398215711116791
1760107161636546300,11.25154638671875,-0.19981111586093903,0.013119264505803585,-0.377880722284317
1760107161646612200,11.2616123046875,-0.14398327469825745,0.05203736945986748,-0.2828149199485779
1760107161656677000,11.271677001953124,-0.06379735469818115,0.09649990499019623,-0.1702478975057602
1760107161666742300,11.2817421875,0.017539579421281815,0.13103151321411133,-0.05409945547580719
1760107161676808400,11.291808349609376,0.08437346667051315,0.15181030333042145,0.04332004487514496
1760107161686873000,11.301873046875,0.12397228181362152,0.1564258188009262,0.12002813816070557
1760107161696939300,11.311939208984375,0.13439695537090302,0.13884736597537994,0.15677602589130402
1760107161707004400,11.32200439453125,0.11766032129526138,0.1069919615983963,0.1508140116930008
1760107161717070300,11.3320703125,0.1024981439113617,0.06810661405324936,0.11593353003263474
1760107161727135200,11.34213525390625,0.09766930341720581,0.025045432150363922,0.07229390740394592
1760107161737200400,11.352200439453124,0.10214021801948547,-0.0022897860035300255,0.034084200859069824
1760107161747266300,11.362266357421875,0.10943195223808289,-0.018625082448124886,0.008315720595419407
1760107161757331500,11.37233154296875,0.10180119425058365,-0.024032898247241974,-0.013480921275913715
1760107161767397000,11.382397216796875,0.0891575738787651,-0.021204620599746704,-0.02490268647670746
1760107161777462300,11.392462158203125,0.07509395480155945,-0.011023356579244137,-0.03229641914367676
1760107161787528200,11.402528076171874,0.050509512424468994,-0.0037651772145181894,-0.028615400195121765
1760107161797593300,11.41259326171875,0.02984284982085228,0.01630493812263012,-0.01733558066189289
1760107161807659300,11.4226591796875,0.0116148442029953,0.05227652192115784,-0.006238721311092377
1760107161817724200,11.43272412109375,-0.0004652542411349714,0.07011330872774124,-0.00040080572944134474
1760107161827789300,11.442789306640625,-0.006343383342027664,0.06537207961082458,-0.007158576976507902
1760107161837855200,11.452855224609374,0.0004900216590613127,0.05649230256676674,-0.006082926411181688
1760107161847920000,11.462920166015625,0.017842380329966545,0.05932164564728737,0.0015965650090947747
1760107161857986300,11.472986328125,0.03146524727344513,0.06420881301164627,0.01557975821197033
1760107161868051200,11.48305126953125,0.028851620852947235,0.07049068063497543,0.021883195266127586
1760107161878117400,11.493117431640625,0.025946645066142082,0.07292214035987854,0.020443223416805267
1760107161888182300,11.503182373046876,0.020304473116993904,0.08455216884613037,0.012195679359138012
1760107161898247200,11.5132470703125,0.013059609569609165,0.100523941218853,-0.0018900453578680754
1760107161908313300,11.523313232421875,0.016034893691539764,0.11329247057437897,-0.018669825047254562
1760107161918378200,11.533378173828124,0.029813822358846664,0.09077145159244537,-0.034930285066366196
1760107161928444200,11.543444091796875,0.06154272332787514,0.04849083721637726,-0.037763889878988266
1760107161938509300,11.55350927734375,0.10513520985841751,0.004022704903036356,-0.015471900813281536
1760107161948575200,11.5635751953125,0.14589674770832062,-0.031134484335780144,0.027998078614473343
1760107161958640400,11.573640380859375,0.17780248820781708,-0.06164072826504707,0.08030016720294952
1760107161968705300,11.583705322265626,0.19566617906093597,-0.08643582463264465,0.12389238178730011
1760107161978771200,11.593771240234375,0.20754386484622955,-0.10681086778640747,0.1548313945531845
1760107161988836400,11.60383642578125,0.21497727930545807,-0.09053309261798859,0.16526485979557037
1760107161998902300,11.61390234375,0.21869586408138275,-0.039261650294065475,0.1671610325574875
1760107162008967200,11.62396728515625,0.22426879405975342,0.053706903010606766,0.17595478892326355
1760107162019033000,11.634033203125,0.22973120212554932,0.14375290274620056,0.175867959856987
1760107162029098200,11.64409814453125,0.23022335767745972,0.18653686344623566,0.15589772164821625
1760107162039164400,11.654164306640626,0.24127067625522614,0.1879773586988449,0.11742516607046127
1760107162049229000,11.66422900390625,0.26141616702079773,0.15410088002681732,0.06352385133504868
1760107162059294200,11.674294189453125,0.2752091884613037,0.07490833103656769,-0.02202141284942627
1760107162069360400,11.6843603515625,0.2835153341293335,-0.03181358799338341,-0.12930552661418915
1760107162079425300,11.69442529296875,0.29981574416160583,-0.05017022788524628,-0.22837378084659576
1760107162089491500,11.704491455078125,0.31431877613067627,-0.0029912625905126333,-0.30447521805763245
1760107162099556000,11.71455615234375,0.3331316113471985,0.055131696164608,-0.3524371385574341
1760107162109622300,11.724622314453125,0.36389806866645813,0.10276126861572266,-0.3605797588825226
1760107162119687400,11.7346875,0.3991210162639618,0.11453963071107864,-0.3434750735759735
1760107162129752000,11.744751953125,0.4327503442764282,0.12109659612178802,-0.3011454641819
1760107162139818200,11.754818359375,0.4492507576942444,0.14629489183425903,-0.22706563770771027
1760107162149883400,11.76488330078125,0.4567022919654846,0.1977149397134781,-0.12769058346748352
1760107162159949300,11.77494921875,0.4776616394519806,0.25711649656295776,-0.011035074479877949
1760107162170014500,11.785014404296875,0.5311722755432129,0.30859673023223877,0.09684371948242188
1760107162180080000,11.795080078125,0.596398651599884,0.3158341348171234,0.1867818683385849
1760107162190145300,11.805145263671875,0.6453771591186523,0.2615751624107361,0.2568879723548889
1760107162200210400,11.81521044921875,0.6659159660339355,0.16788168251514435,0.3040166199207306
1760107162210276400,11.8252763671875,0.6455441117286682,0.06755267828702927,0.325130432844162
1760107162220341500,11.835341552734375,0.6016115546226501,-0.050148122012615204,0.3061351478099823
1760107162230407400,11.845407470703124,0.5381734371185303,-0.14266900718212128,0.24403823912143707
1760107162240472300,11.855472412109375,0.48091840744018555,-0.1943170130252838,0.1518118977546692
1760107162250538200,11.865538330078126,0.43789905309677124,-0.19949206709861755,0.043782368302345276
1760107162260603400,11.875603271484374,0.41123202443122864,-0.1643543243408203,-0.07327554374933243
1760107162270669600,11.885669677734375,0.3751666843891144,-0.09838329255580902,-0.17795854806900024
1760107162280734200,11.895734130859376,0.34162309765815735,-0.00043223105603829026,-0.2592557966709137
1760107162290799400,11.90579931640625,0.29147738218307495,0.09613905102014542,-0.3093445301055908
1760107162300865500,11.915865478515625,0.23963922262191772,0.15465855598449707,-0.35267096757888794
1760107162310930400,11.925930419921874,0.195291206240654,0.1782269924879074,-0.36197444796562195
1760107162320996400,11.935996337890625,0.17027932405471802,0.1701565533876419,-0.3344155251979828
1760107162331061200,11.946061279296876,0.1653066724538803,0.1252356767654419,-0.27196893095970154
1760107162341127400,11.95612744140625,0.17620538175106049,0.08053452521562576,-0.16219982504844666
1760107162351192600,11.966192626953125,0.21135911345481873,0.058212172240018845,-0.02876506932079792
1760107162361257200,11.97625732421875,0.2452574223279953,0.05624649301171303,0.09694492071866989
1760107162371323400,11.986323486328125,0.26232004165649414,0.06543146818876266,0.18296316266059875
1760107162381388500,11.996388427734376,0.24518312513828278,0.07954595983028412,0.21139000356197357
1760107162391454500,12.006454345703125,0.2075718343257904,0.09074002504348755,0.18314266204833984
1760107162401519400,12.016519287109375,0.1661950945854187,0.10326806455850601,0.11313081532716751
1760107162411585300,12.026585205078124,0.13100196421146393,0.1089501827955246,0.03383093327283859
1760107162421650400,12.036650390625,0.11435240507125854,0.13083098828792572,-0.036131106317043304
1760107162431715600,12.046715576171875,0.10101636499166489,0.1520659625530243,-0.0754188597202301
1760107162441781200,12.05678125,0.09594037383794785,0.15189392864704132,-0.08153560757637024
1760107162451846400,12.066846435546875,0.09357735514640808,0.1451936811208725,-0.05669257417321205
1760107162461912300,12.076912353515626,0.09649457782506943,0.1483156979084015,-0.00827790331095457
1760107162471977500,12.0869775390625,0.08418971300125122,0.15902294218540192,0.04381059855222702
1760107162482043400,12.09704345703125,0.0580688938498497,0.14136750996112823,0.10055910050868988
1760107162492108300,12.1071083984375,0.027452129870653152,0.11214651167392731,0.14115898311138153
1760107162502173400,12.11717333984375,0.0027869981713593006,0.07281827926635742,0.1735028177499771
1760107162512239400,12.1272392578125,-0.002674879040569067,0.010400176979601383,0.20616061985492706
1760107162522304300,12.13730419921875,-0.006857906002551317,-0.04222175478935242,0.23838886618614197
1760107162532370400,12.147370361328125,-0.028856415301561356,-0.06729461997747421,0.26022279262542725
1760107162542435300,12.157435302734376,-0.06707730144262314,-0.06516728550195694,0.2530066967010498
1760107162552501500,12.16750146484375,-0.10978535562753677,-0.049079928547143936,0.21712912619113922
1760107162562566400,12.17756640625,-0.14926299452781677,-0.034634944051504135,0.15238554775714874
1760107162572631300,12.18763134765625,-0.17397631704807281,-0.041490718722343445,0.0767885223031044
1760107162582697500,12.197697509765625,-0.19377745687961578,-0.06034696474671364,0.017436780035495758
1760107162592762400,12.207762451171876,-0.20037837326526642,-0.04229579120874405,-0.0006386260502040386
1760107162602828500,12.21782861328125,-0.19711387157440186,-0.02552107162773609,0.03085991181433201
1760107162612893400,12.2278935546875,-0.17174911499023438,0.03977564349770546,0.11810985952615738
1760107162622959400,12.23795947265625,-0.14793673157691956,0.14668691158294678,0.24037665128707886
1760107162633024500,12.2480244140625,-0.13219904899597168,0.18982213735580444,0.3478860557079315
1760107162643089400,12.25808935546875,-0.13103285431861877,0.1541283130645752,0.40400952100753784
1760107162653155300,12.2681552734375,-0.13415168225765228,0.07815871387720108,0.39350414276123047
1760107162663220500,12.278220458984375,-0.13055667281150818,-0.017047161236405373,0.32217538356781006
1760107162673286400,12.288286376953126,-0.13004614412784576,-0.09719179570674896,0.21932223439216614
1760107162683351300,12.298351318359375,-0.1468123495578766,-0.14538782835006714,0.09899342805147171
1760107162693417200,12.308417236328125,-0.18223291635513306,-0.16963855922222137,-0.03008945845067501
1760107162703482400,12.318482421875,-0.25279951095581055,-0.17107108235359192,-0.16664943099021912
1760107162713547500,12.328547607421875,-0.35167360305786133,-0.1698729246854782,-0.32750144600868225
1760107162723613400,12.338613525390626,-0.4621939957141876,-0.1282368004322052,-0.5068240761756897
1760107162733678300,12.34867822265625,-0.5319454073905945,-0.05697060748934746,-0.6640973091125488
1760107162743744300,12.358744140625,-0.5367262959480286,0.05690589174628258,-0.7415246963500977
